"Time (s)","Gyroscope x (rad/s)","Gyroscope y (rad/s)","Gyroscope z (rad/s)"
1.825897300E-2,1.374445739E-3,-1.374445739E-3,-2.733619884E-2
2.036975500E-2,1.374445739E-3,-1.374445739E-3,-2.733619884E-2
2.248053600E-2,2.596175298E-3,-9.926552884E-3,-2.855792828E-2
2.459131700E-2,2.596175298E-3,-1.114828233E-2,-2.733619884E-2
2.670209800E-2,3.817904973E-3,-1.114828233E-2,-2.733619884E-2
2.881288000E-2,5.039634649E-3,-1.237001177E-2,-2.611446939E-2
3.092366100E-2,3.817904973E-3,-1.114828233E-2,-2.611446939E-2
3.303444200E-2,2.596175298E-3,-1.114828233E-2,-2.611446939E-2
3.514522300E-2,3.817904973E-3,-1.237001177E-2,-2.611446939E-2
3.725600500E-2,1.527161949E-4,-1.359174121E-2,-2.367101051E-2
3.936678600E-2,1.374445739E-3,-1.603520103E-2,-2.367101051E-2
4.147756700E-2,1.527161949E-4,-1.603520103E-2,-2.122755162E-2
4.358834800E-2,1.527161949E-4,-1.847865991E-2,-2.244928107E-2
4.569907800E-2,1.374445739E-3,-2.580903657E-2,-2.122755162E-2
4.780991100E-2,1.527161949E-4,-2.703076601E-2,-1.756236330E-2
4.992069200E-2,1.527161949E-4,-3.191768378E-2,-1.756236330E-2
5.203142100E-2,-2.290742937E-3,-3.680460155E-2,-1.756236330E-2
5.414225500E-2,-2.290742937E-3,-4.291325063E-2,-1.634063199E-2
5.625298400E-2,-1.069013379E-3,-4.535670951E-2,-1.389717404E-2
5.836376500E-2,-1.069013379E-3,-5.024362728E-2,-1.389717404E-2
6.047454600E-2,-2.290742937E-3,-5.268708616E-2,-1.023198478E-2
6.258532800E-2,-2.290742937E-3,-5.635227636E-2,-1.023198478E-2
6.469610900E-2,-2.290742937E-3,-5.879573524E-2,-7.788525894E-3
6.680689000E-2,-2.290742937E-3,-6.123919412E-2,-5.345067009E-3
6.891767100E-2,-3.512472380E-3,-6.246092543E-2,-4.123337101E-3
7.102845300E-2,-3.512472380E-3,-6.246092543E-2,-1.679878100E-3
7.313923400E-2,-4.734201822E-3,-6.123919412E-2,7.635809598E-4
7.525001500E-2,-5.955931731E-3,-6.123919412E-2,1.985310577E-3
7.736079600E-2,-5.955931731E-3,-5.757400393E-2,4.428769462E-3
7.947157800E-2,-5.955931731E-3,-5.390881747E-2,6.872228812E-3
8.158235900E-2,-7.177661173E-3,-5.146535859E-2,8.093958721E-3
8.369314000E-2,-8.399390616E-3,-4.535670951E-2,1.053741761E-2
8.580392100E-2,-7.177661173E-3,-4.413498193E-2,1.053741761E-2
8.791470300E-2,-5.955931731E-3,-3.558287397E-2,1.298087649E-2
9.002548400E-2,-5.955931731E-3,-2.947422490E-2,1.542433538E-2
9.213626500E-2,-4.734201822E-3,-2.458730713E-2,1.542433538E-2
9.424704600E-2,-2.290742937E-3,-1.847865991E-2,1.664606482E-2
9.635782800E-2,-1.069013379E-3,-9.926552884E-3,1.786779426E-2
9.846855700E-2,-1.069013379E-3,-6.261364091E-3,1.908952370E-2
1.005793380E-1,-1.069013379E-3,1.069013379E-3,2.031125315E-2
1.026901710E-1,2.596175298E-3,5.955931731E-3,2.275471389E-2
1.048009010E-1,1.374445739E-3,1.084284950E-2,2.153298259E-2
1.069116820E-1,1.374445739E-3,1.817322709E-2,2.275471389E-2
1.090224630E-1,3.817904973E-3,2.061668597E-2,2.397644334E-2
1.111332440E-1,3.817904973E-3,2.428187430E-2,2.519817278E-2
1.132440260E-1,1.374445739E-3,2.672533318E-2,2.519817278E-2
1.153548070E-1,2.596175298E-3,3.161225095E-2,2.397644334E-2
1.174655880E-1,2.596175298E-3,3.283398226E-2,2.641990222E-2
1.195763690E-1,1.527161949E-4,3.283398226E-2,2.641990222E-2
1.216871510E-1,1.374445739E-3,3.283398226E-2,2.641990222E-2
1.237979320E-1,1.374445739E-3,3.283398226E-2,2.641990222E-2
1.259087130E-1,1.374445739E-3,3.161225095E-2,2.764163166E-2
1.280194940E-1,1.374445739E-3,2.672533318E-2,2.886336111E-2
1.301302760E-1,-1.069013379E-3,2.306014486E-2,2.886336111E-2
1.322410570E-1,-2.290742937E-3,1.939495653E-2,2.886336111E-2
1.343518380E-1,-3.512472380E-3,1.206457894E-2,3.008509055E-2
1.364626190E-1,-3.512472380E-3,9.621120058E-3,3.008509055E-2
1.385734010E-1,-2.290742937E-3,1.069013379E-3,3.130681813E-2
1.406841820E-1,-4.734201822E-3,-3.817904973E-3,3.130681813E-2
1.427949630E-1,-4.734201822E-3,-8.704823442E-3,3.252854943E-2
1.449057440E-1,-4.734201822E-3,-1.847865991E-2,3.252854943E-2
1.470165260E-1,-4.734201822E-3,-2.458730713E-2,3.375028074E-2
1.491273070E-1,-8.399390616E-3,-2.703076601E-2,3.375028074E-2
1.512380880E-1,-5.955931731E-3,-3.680460155E-2,3.375028074E-2
1.533488690E-1,-8.399390616E-3,-3.924806044E-2,3.497200832E-2
1.554595980E-1,-9.621120058E-3,-4.413498193E-2,3.497200832E-2
1.575703800E-1,-1.084284950E-2,-4.902189970E-2,3.619373962E-2
1.596811610E-1,-1.084284950E-2,-5.146535859E-2,3.863719851E-2
1.617919420E-1,-1.328630932E-2,-5.513054505E-2,3.863719851E-2
1.639027230E-1,-1.450803876E-2,-6.001746282E-2,3.985892609E-2
1.660135050E-1,-1.328630932E-2,-6.123919412E-2,4.230238497E-2
1.681242860E-1,-1.572976820E-2,-6.368265301E-2,4.474584386E-2
1.702350670E-1,-1.572976820E-2,-6.612611562E-2,4.596757516E-2
1.723458480E-1,-1.695149764E-2,-6.612611562E-2,4.718930274E-2
1.744566300E-1,-1.328630932E-2,-6.734783947E-2,4.963276163E-2
1.765674110E-1,-1.328630932E-2,-6.612611562E-2,5.085449293E-2
1.786781920E-1,-1.084284950E-2,-6.612611562E-2,5.451968312E-2
1.807889730E-1,-1.206457894E-2,-6.612611562E-2,5.574141070E-2
1.828997550E-1,-1.206457894E-2,-6.123919412E-2,5.574141070E-2
1.850105360E-1,-8.399390616E-3,-6.001746282E-2,5.940660089E-2
1.871213170E-1,-9.621120058E-3,-5.879573524E-2,6.062832847E-2
1.892320980E-1,-7.177661173E-3,-5.146535859E-2,6.307178736E-2
1.913428800E-1,-7.177661173E-3,-4.902189970E-2,6.429351866E-2
1.934536610E-1,-9.621120058E-3,-4.413498193E-2,6.795870513E-2
1.955644420E-1,-9.621120058E-3,-3.924806044E-2,6.795870513E-2
1.976752230E-1,-9.621120058E-3,-3.558287397E-2,7.040216774E-2
1.997860050E-1,-9.621120058E-3,-3.069595434E-2,7.162389904E-2
2.018967860E-1,-1.328630932E-2,-2.580903657E-2,7.284562290E-2
2.040075670E-1,-1.450803876E-2,-2.092211880E-2,7.528908551E-2
2.061182960E-1,-1.572976820E-2,-1.970038936E-2,7.651081681E-2
2.082290780E-1,-1.328630932E-2,-1.481347065E-2,8.017600328E-2
2.103398590E-1,-1.450803876E-2,-1.603520103E-2,8.139773458E-2
2.124506400E-1,-1.572976820E-2,-1.237001177E-2,8.384118974E-2
2.145614210E-1,-1.450803876E-2,-9.926552884E-3,8.750637621E-2
2.166722030E-1,-1.450803876E-2,-8.704823442E-3,8.994983882E-2
2.187829840E-1,-1.206457894E-2,-7.483093534E-3,8.994983882E-2
2.208937650E-1,-1.206457894E-2,-7.483093534E-3,9.605848789E-2
2.230045460E-1,-1.084284950E-2,-7.483093534E-3,9.728021920E-2
2.251153280E-1,-8.399390616E-3,-8.704823442E-3,9.972367436E-2
2.272261090E-1,-8.399390616E-3,-6.261364091E-3,1.021671370E-1
2.293368900E-1,-1.084284950E-2,-7.483093534E-3,1.046105921E-1
2.314476710E-1,-8.399390616E-3,-7.483093534E-3,1.058323234E-1
2.335584530E-1,-7.177661173E-3,-8.704823442E-3,1.094975099E-1
2.356692340E-1,-1.084284950E-2,-9.926552884E-3,1.107192412E-1
2.377800150E-1,-1.206457894E-2,-9.926552884E-3,1.131627038E-1
2.398907960E-1,-1.084284950E-2,-1.237001177E-2,1.143844277E-1
2.420015780E-1,-1.328630932E-2,-1.114828233E-2,1.156061590E-1
2.441123590E-1,-1.450803876E-2,-9.926552884E-3,1.168278903E-1
2.462231400E-1,-1.450803876E-2,-1.114828233E-2,1.192713454E-1
2.483339210E-1,-1.695149764E-2,-1.237001177E-2,1.217148080E-1
2.504447030E-1,-1.695149764E-2,-1.359174121E-2,1.229365394E-1
2.525554320E-1,-1.817322709E-2,-1.481347065E-2,1.229365394E-1
2.546662650E-1,-1.817322709E-2,-1.603520103E-2,1.253799945E-1
2.567770460E-1,-1.695149764E-2,-1.970038936E-2,1.253799945E-1
2.588877760E-1,-1.817322709E-2,-2.092211880E-2,1.266017258E-1
2.609985570E-1,-1.695149764E-2,-2.458730713E-2,1.290451884E-1
2.631093380E-1,-1.695149764E-2,-2.580903657E-2,1.290451884E-1
2.652201190E-1,-1.450803876E-2,-2.825249545E-2,1.302669197E-1
2.673309530E-1,-1.572976820E-2,-2.947422490E-2,1.314886510E-1
2.694416820E-1,-1.572976820E-2,-3.191768378E-2,1.327103674E-1
2.715524630E-1,-1.572976820E-2,-3.436114267E-2,1.327103674E-1
2.736632440E-1,-1.572976820E-2,-3.436114267E-2,1.327103674E-1
2.757740260E-1,-1.572976820E-2,-3.680460155E-2,1.339320987E-1
2.778848070E-1,-1.572976820E-2,-3.436114267E-2,1.339320987E-1
2.799955880E-1,-1.817322709E-2,-3.558287397E-2,1.351538301E-1
2.821063690E-1,-1.817322709E-2,-3.558287397E-2,1.363755614E-1
2.842171510E-1,-1.817322709E-2,-3.680460155E-2,1.363755614E-1
2.863279320E-1,-2.061668597E-2,-3.802633286E-2,1.363755614E-1
2.884387130E-1,-2.061668597E-2,-4.046979174E-2,1.375972927E-1
2.905494940E-1,-1.939495653E-2,-4.046979174E-2,1.375972927E-1
2.926602760E-1,-2.306014486E-2,-4.291325063E-2,1.363755614E-1
2.947710570E-1,-2.183841541E-2,-4.291325063E-2,1.375972927E-1
2.968818380E-1,-2.183841541E-2,-4.413498193E-2,1.375972927E-1
2.989926190E-1,-2.183841541E-2,-4.535670951E-2,1.375972927E-1
3.011034010E-1,-2.306014486E-2,-4.902189970E-2,1.375972927E-1
3.032141820E-1,-2.183841541E-2,-5.146535859E-2,1.363755614E-1
3.053249630E-1,-2.183841541E-2,-5.146535859E-2,1.363755614E-1
3.074356920E-1,-2.183841541E-2,-5.513054505E-2,1.363755614E-1
3.095464730E-1,-2.061668597E-2,-5.635227636E-2,1.351538301E-1
3.116572550E-1,-2.061668597E-2,-6.001746282E-2,1.351538301E-1
3.137680360E-1,-1.939495653E-2,-6.123919412E-2,1.339320987E-1
3.158788170E-1,-1.939495653E-2,-6.246092543E-2,1.339320987E-1
3.179895980E-1,-2.306014486E-2,-6.368265301E-2,1.327103674E-1
3.201003800E-1,-2.183841541E-2,-6.490438432E-2,1.327103674E-1
3.222111610E-1,-2.428187430E-2,-6.612611562E-2,1.327103674E-1
3.243219420E-1,-2.428187430E-2,-6.612611562E-2,1.314886510E-1
3.264327230E-1,-2.306014486E-2,-6.368265301E-2,1.302669197E-1
3.285435050E-1,-2.306014486E-2,-6.246092543E-2,1.314886510E-1
3.306542340E-1,-2.428187430E-2,-6.123919412E-2,1.302669197E-1
3.327650670E-1,-2.550360374E-2,-6.001746282E-2,1.302669197E-1
3.348758480E-1,-2.306014486E-2,-6.001746282E-2,1.302669197E-1
3.369866300E-1,-2.306014486E-2,-5.390881747E-2,1.290451884E-1
3.390974110E-1,-2.306014486E-2,-5.390881747E-2,1.290451884E-1
3.412081920E-1,-2.183841541E-2,-4.902189970E-2,1.278234571E-1
3.433189730E-1,-2.183841541E-2,-4.780016840E-2,1.278234571E-1
3.454297550E-1,-1.817322709E-2,-4.413498193E-2,1.266017258E-1
3.475405360E-1,-1.695149764E-2,-4.169152305E-2,1.266017258E-1
3.496513170E-1,-1.695149764E-2,-3.802633286E-2,1.266017258E-1
3.517620980E-1,-1.328630932E-2,-3.436114267E-2,1.266017258E-1
3.538728800E-1,-1.450803876E-2,-2.947422490E-2,1.253799945E-1
3.559836610E-1,-1.206457894E-2,-2.580903657E-2,1.241582632E-1
3.580943900E-1,-1.450803876E-2,-2.092211880E-2,1.253799945E-1
3.602051710E-1,-1.450803876E-2,-1.725693047E-2,1.229365394E-1
3.623159530E-1,-1.206457894E-2,-1.114828233E-2,1.229365394E-1
3.644267340E-1,-1.328630932E-2,-6.261364091E-3,1.229365394E-1
3.665375150E-1,-1.328630932E-2,-1.374445739E-3,1.217148080E-1
3.686482960E-1,-1.328630932E-2,1.069013379E-3,1.229365394E-1
3.707590780E-1,-1.328630932E-2,7.177661173E-3,1.217148080E-1
3.728698590E-1,-1.450803876E-2,1.328630932E-2,1.217148080E-1
3.749806400E-1,-1.450803876E-2,1.817322709E-2,1.217148080E-1
3.770914210E-1,-1.450803876E-2,2.183841541E-2,1.217148080E-1
3.792022030E-1,-1.328630932E-2,2.916879393E-2,1.229365394E-1
3.813129840E-1,-1.450803876E-2,3.527744114E-2,1.217148080E-1
3.834237650E-1,-1.084284950E-2,3.894263133E-2,1.229365394E-1
3.855345460E-1,-9.621120058E-3,4.260781780E-2,1.229365394E-1
3.876453280E-1,-1.084284950E-2,4.749473557E-2,1.229365394E-1
3.897561090E-1,-9.621120058E-3,5.115992576E-2,1.241582632E-1
3.918668900E-1,-7.177661173E-3,5.482511222E-2,1.241582632E-1
3.939776710E-1,-7.177661173E-3,6.093376130E-2,1.241582632E-1
3.960884530E-1,-5.955931731E-3,6.337722391E-2,1.241582632E-1
3.981992340E-1,-7.177661173E-3,6.704241037E-2,1.241582632E-1
4.003100150E-1,-5.955931731E-3,7.315105945E-2,1.241582632E-1
4.024207960E-1,-4.734201822E-3,7.681624591E-2,1.253799945E-1
4.045315780E-1,-5.955931731E-3,8.292489499E-2,1.241582632E-1
4.066423590E-1,-7.177661173E-3,8.781181276E-2,1.229365394E-1
4.087530880E-1,-8.399390616E-3,9.147699922E-2,1.241582632E-1
4.108638690E-1,-8.399390616E-3,9.514218569E-2,1.229365394E-1
4.129746510E-1,-7.177661173E-3,9.758564830E-2,1.204930767E-1
4.150854320E-1,-9.621120058E-3,1.036942974E-1,1.217148080E-1
4.171962130E-1,-8.399390616E-3,1.085812151E-1,1.217148080E-1
4.193069940E-1,-5.955931731E-3,1.110246703E-1,1.217148080E-1
4.214177760E-1,-1.084284950E-2,1.134681329E-1,1.204930767E-1
4.235285570E-1,-8.399390616E-3,1.171333194E-1,1.180496216E-1
4.256393380E-1,-9.621120058E-3,1.159115955E-1,1.180496216E-1
4.277501190E-1,-7.177661173E-3,1.159115955E-1,1.180496216E-1
4.298609010E-1,-8.399390616E-3,1.146898642E-1,1.156061590E-1
4.319716820E-1,-7.177661173E-3,1.134681329E-1,1.143844277E-1
4.340824630E-1,-5.955931731E-3,1.110246703E-1,1.143844277E-1
4.361932440E-1,-7.177661173E-3,1.073594838E-1,1.131627038E-1
4.383040260E-1,-4.734201822E-3,1.012508348E-1,1.119409725E-1
4.404148070E-1,-7.177661173E-3,9.514218569E-2,1.094975099E-1
4.425255880E-1,-8.399390616E-3,9.269873053E-2,1.082757786E-1
4.446363690E-1,-8.399390616E-3,8.292489499E-2,1.094975099E-1
4.467471510E-1,-9.621120058E-3,7.437278330E-2,1.058323234E-1
4.488579320E-1,-9.621120058E-3,6.459894776E-2,1.046105921E-1
4.509687130E-1,-8.399390616E-3,5.604684353E-2,1.033888608E-1
4.530794940E-1,-1.084284950E-2,4.749473557E-2,1.021671370E-1
4.551902760E-1,-1.328630932E-2,3.405570984E-2,1.009454057E-1
4.573010570E-1,-1.206457894E-2,2.672533318E-2,9.972367436E-2
4.594117860E-1,-1.328630932E-2,1.572976820E-2,9.728021920E-2
4.615225670E-1,-1.450803876E-2,2.290742937E-3,9.605848789E-2
4.636333480E-1,-1.450803876E-2,-6.261364091E-3,9.483675659E-2
4.657441300E-1,-1.572976820E-2,-1.847865991E-2,9.361502528E-2
4.678549110E-1,-1.572976820E-2,-3.069595434E-2,9.361502528E-2
4.699656920E-1,-1.572976820E-2,-4.291325063E-2,9.117157012E-2
4.720764730E-1,-1.695149764E-2,-5.390881747E-2,8.994983882E-2
4.741872550E-1,-1.572976820E-2,-6.612611562E-2,8.750637621E-2
4.762980360E-1,-1.572976820E-2,-7.712167501E-2,8.750637621E-2
4.784088170E-1,-1.450803876E-2,-9.056070447E-2,8.506292105E-2
4.805195980E-1,-1.572976820E-2,-9.911280870E-2,8.261945844E-2
4.826303800E-1,-1.328630932E-2,-1.076649204E-1,8.017600328E-2
4.847411610E-1,-1.695149764E-2,-1.174387559E-1,7.651081681E-2
4.868519420E-1,-1.450803876E-2,-1.235474050E-1,7.528908551E-2
4.889627230E-1,-1.206457894E-2,-1.308777779E-1,7.284562290E-2
4.910735050E-1,-1.328630932E-2,-1.369864196E-1,7.040216774E-2
4.931842860E-1,-1.450803876E-2,-1.406516135E-1,6.673697382E-2
4.952950670E-1,-1.572976820E-2,-1.443168074E-1,6.551524997E-2
4.974058480E-1,-1.572976820E-2,-1.479819864E-1,6.062832847E-2
4.995166300E-1,-1.695149764E-2,-1.504254490E-1,5.818486959E-2
5.016274110E-1,-1.695149764E-2,-1.528689116E-1,5.696314201E-2
5.037373070E-1,-1.817322709E-2,-1.492037177E-1,5.451968312E-2
5.058489730E-1,-1.817322709E-2,-1.467602700E-1,5.085449293E-2
5.079597550E-1,-1.695149764E-2,-1.455385387E-1,4.963276163E-2
5.100705360E-1,-1.572976820E-2,-1.394298822E-1,4.596757516E-2
5.121812650E-1,-1.450803876E-2,-1.308777779E-1,4.474584386E-2
5.142920460E-1,-1.206457894E-2,-1.235474050E-1,4.108065739E-2
5.164028280E-1,-1.328630932E-2,-1.101083755E-1,3.741546720E-2
5.185136090E-1,-1.084284950E-2,-9.789107740E-2,3.497200832E-2
5.206243900E-1,-8.399390616E-3,-8.567378670E-2,3.252854943E-2
5.227351710E-1,-4.734201822E-3,-6.979130208E-2,2.764163166E-2
5.248459530E-1,-2.290742937E-3,-5.268708616E-2,2.519817278E-2
5.269567340E-1,1.374445739E-3,-3.436114267E-2,2.031125315E-2
5.290675150E-1,1.374445739E-3,-1.481347065E-2,1.542433538E-2
5.311782960E-1,5.039634649E-3,5.955931731E-3,1.175914705E-2
5.332890780E-1,8.704823442E-3,2.672533318E-2,8.093958721E-3
5.353998590E-1,1.114828233E-2,4.993819445E-2,7.635809598E-4
5.375106400E-1,1.237001177E-2,6.948586553E-2,-2.901607659E-3
5.396214210E-1,1.114828233E-2,9.269873053E-2,-9.010255337E-3
5.417322030E-1,1.359174121E-2,1.146898642E-1,-1.511890348E-2
5.438429840E-1,1.359174121E-2,1.354592592E-1,-2.244928107E-2
5.459537650E-1,1.481347065E-2,1.586721241E-1,-2.855792828E-2
5.480645460E-1,1.481347065E-2,1.806632578E-1,-3.466657549E-2
5.501753280E-1,1.725693047E-2,2.014326602E-1,-4.077522457E-2
5.522861090E-1,1.970038936E-2,2.197586000E-1,-4.810560122E-2
5.543968900E-1,2.214384824E-2,2.405280024E-1,-5.421425030E-2
5.565076710E-1,2.214384824E-2,2.588539422E-1,-6.154462695E-2
5.586184530E-1,2.336557768E-2,2.771798968E-1,-7.009673119E-2
5.607292340E-1,2.703076601E-2,2.967275679E-1,-7.620538026E-2
5.628399630E-1,2.947422490E-2,3.138317764E-1,-8.353576064E-2
5.649507440E-1,3.069595434E-2,3.321577311E-1,-9.086613357E-2
5.670615260E-1,3.558287397E-2,3.492619395E-1,-9.819651395E-2
5.691723070E-1,3.436114267E-2,3.614792228E-1,-1.043051630E-1
5.712830880E-1,4.046979174E-2,3.749182522E-1,-1.128572673E-1
5.733938690E-1,4.169152305E-2,3.859138191E-1,-1.189659163E-1
5.755046510E-1,4.413498193E-2,3.932442069E-1,-1.275180280E-1
5.776154320E-1,4.657844082E-2,3.993528485E-1,-1.360701323E-1
5.797262130E-1,4.657844082E-2,4.017963111E-1,-1.434005052E-1
5.818369940E-1,4.780016840E-2,4.030180275E-1,-1.507308781E-1
5.839477760E-1,4.657844082E-2,4.017963111E-1,-1.580612659E-1
5.860585570E-1,4.780016840E-2,3.969093859E-1,-1.666133702E-1
5.881693380E-1,4.780016840E-2,3.883572817E-1,-1.739437431E-1
5.902801190E-1,4.657844082E-2,3.736965358E-1,-1.824958473E-1
5.923909010E-1,4.535670951E-2,3.578140438E-1,-1.910479665E-1
5.945016820E-1,4.535670951E-2,3.394880891E-1,-1.983783394E-1
5.966124630E-1,4.535670951E-2,3.174969554E-1,-2.044869810E-1
5.987232440E-1,4.169152305E-2,2.979492843E-1,-2.130390853E-1
6.008340260E-1,4.169152305E-2,2.771798968E-1,-2.191477418E-1
6.029448070E-1,4.291325063E-2,2.576322258E-1,-2.252563834E-1
6.050555880E-1,4.657844082E-2,2.393062711E-1,-2.325867712E-1
6.071663690E-1,4.657844082E-2,2.197586000E-1,-2.386954129E-1
6.092770980E-1,4.780016840E-2,2.014326602E-1,-2.448040545E-1
6.113879320E-1,5.024362728E-2,1.831067204E-1,-2.509126961E-1
6.134986610E-1,4.902189970E-2,1.660024971E-1,-2.570213675E-1
6.156094420E-1,4.902189970E-2,1.488982886E-1,-2.619082630E-1
6.177202230E-1,4.902189970E-2,1.317940801E-1,-2.692386508E-1
6.198310050E-1,5.146535859E-2,1.110246703E-1,-2.753472924E-1
6.219417860E-1,5.146535859E-2,9.147699922E-2,-2.790125012E-1
6.240525670E-1,4.780016840E-2,7.315105945E-2,-2.851211429E-1
6.261633480E-1,4.780016840E-2,5.115992576E-2,-2.900080681E-1
6.282741300E-1,4.413498193E-2,3.161225095E-2,-2.948949635E-1
6.303849110E-1,4.291325063E-2,8.399390616E-3,-2.997818887E-1
6.324956920E-1,4.046979174E-2,-1.359174121E-2,-3.034470677E-1
6.346064730E-1,3.924806044E-2,-3.680460155E-2,-3.083339930E-1
6.367172550E-1,3.924806044E-2,-5.757400393E-2,-3.119991720E-1
6.388280360E-1,3.680460155E-2,-8.078686893E-2,-3.168860972E-1
6.409388170E-1,3.680460155E-2,-1.015562713E-1,-3.217730224E-1
6.430495980E-1,3.802633286E-2,-1.235474050E-1,-3.254382014E-1
6.451603800E-1,3.680460155E-2,-1.430950761E-1,-3.278816640E-1
6.472711610E-1,3.680460155E-2,-1.601992846E-1,-3.327685893E-1
6.493819420E-1,3.924806044E-2,-1.785252392E-1,-3.352120519E-1
6.514927230E-1,4.169152305E-2,-1.944077164E-1,-3.388772309E-1
6.536035050E-1,4.291325063E-2,-2.090684772E-1,-3.413206935E-1
6.557142860E-1,4.169152305E-2,-2.212857604E-1,-3.437641561E-1
6.578250670E-1,4.169152305E-2,-2.322813272E-1,-3.474293351E-1
6.599357960E-1,4.046979174E-2,-2.420551628E-1,-3.486510813E-1
6.620465780E-1,3.924806044E-2,-2.518289983E-1,-3.498727977E-1
6.641573590E-1,3.802633286E-2,-2.628245652E-1,-3.523162603E-1
6.662681400E-1,3.558287397E-2,-2.738201320E-1,-3.547597229E-1
6.683789210E-1,3.191768378E-2,-2.811505198E-1,-3.547597229E-1
6.704897030E-1,3.069595434E-2,-2.897026241E-1,-3.559814394E-1
6.726004840E-1,2.825249545E-2,-2.982547283E-1,-3.559814394E-1
6.747112650E-1,2.458730713E-2,-3.019199073E-1,-3.547597229E-1
6.768220460E-1,2.214384824E-2,-3.068068326E-1,-3.547597229E-1
6.789328280E-1,2.092211880E-2,-3.092502952E-1,-3.547597229E-1
6.810436090E-1,1.847865991E-2,-3.141372204E-1,-3.535379767E-1
6.831543900E-1,1.847865991E-2,-3.153589368E-1,-3.510945439E-1
6.852651710E-1,1.970038936E-2,-3.153589368E-1,-3.510945439E-1
6.873759530E-1,1.847865991E-2,-3.165806830E-1,-3.498727977E-1
6.894867340E-1,1.970038936E-2,-3.153589368E-1,-3.498727977E-1
6.915975150E-1,1.970038936E-2,-3.129154742E-1,-3.462076187E-1
6.937082960E-1,1.970038936E-2,-3.129154742E-1,-3.449858725E-1
6.958190780E-1,2.092211880E-2,-3.068068326E-1,-3.425424397E-1
6.979298590E-1,1.970038936E-2,-3.006981909E-1,-3.388772309E-1
7.000406400E-1,2.214384824E-2,-2.970330119E-1,-3.376555145E-1
7.021514210E-1,2.214384824E-2,-2.909243405E-1,-3.352120519E-1
7.042622030E-1,2.092211880E-2,-2.848156989E-1,-3.315468729E-1
7.063729840E-1,2.336557768E-2,-2.750418782E-1,-3.291034102E-1
7.084837650E-1,2.458730713E-2,-2.652680278E-1,-3.266599476E-1
7.105944940E-1,1.970038936E-2,-2.579376400E-1,-3.217730224E-1
7.127052760E-1,1.847865991E-2,-2.469420880E-1,-3.193295598E-1
7.148160570E-1,1.847865991E-2,-2.347247899E-1,-3.168860972E-1
7.169268380E-1,1.603520103E-2,-2.212857604E-1,-3.107774556E-1
7.190376190E-1,1.847865991E-2,-2.029598206E-1,-3.071122766E-1
7.211484010E-1,1.481347065E-2,-1.907425225E-1,-3.022253513E-1
7.232591820E-1,1.603520103E-2,-1.724165827E-1,-2.985601723E-1
7.253699630E-1,1.725693047E-2,-1.540906429E-1,-2.948949635E-1
7.274807440E-1,1.847865991E-2,-1.345429718E-1,-2.900080681E-1
7.295914730E-1,1.970038936E-2,-1.125518382E-1,-2.826776803E-1
7.317023070E-1,2.336557768E-2,-8.933897316E-2,-2.790125012E-1
7.338130880E-1,2.580903657E-2,-6.490438432E-2,-2.753472924E-1
7.359238690E-1,2.825249545E-2,-4.046979174E-2,-2.692386508E-1
7.380346510E-1,3.069595434E-2,-1.603520103E-2,-2.643517256E-1
7.401454320E-1,3.436114267E-2,8.399390616E-3,-2.594648004E-1
7.422562130E-1,3.313941509E-2,3.283398226E-2,-2.557996213E-1
7.443669940E-1,3.924806044E-2,5.849030241E-2,-2.496909797E-1
7.464777760E-1,3.924806044E-2,8.292489499E-2,-2.460257858E-1
7.485885570E-1,3.924806044E-2,1.073594838E-1,-2.399171442E-1
7.506993380E-1,4.169152305E-2,1.330158114E-1,-2.362519503E-1
7.528101190E-1,4.169152305E-2,1.513417512E-1,-2.325867712E-1
7.549209010E-1,4.169152305E-2,1.708894223E-1,-2.289215773E-1
7.570316820E-1,4.413498193E-2,1.892153621E-1,-2.252563834E-1
7.591424630E-1,4.169152305E-2,2.026543915E-1,-2.203694731E-1
7.612531920E-1,4.169152305E-2,2.160934210E-1,-2.179260105E-1
7.633639730E-1,3.924806044E-2,2.258672565E-1,-2.118173689E-1
7.654747550E-1,4.169152305E-2,2.344193608E-1,-2.081521749E-1
7.675855360E-1,4.046979174E-2,2.417497337E-1,-2.044869810E-1
7.696963170E-1,4.046979174E-2,2.429714650E-1,-2.008218020E-1
7.718070980E-1,4.046979174E-2,2.417497337E-1,-1.959348768E-1
7.739178800E-1,3.802633286E-2,2.405280024E-1,-1.910479665E-1
7.760286610E-1,3.924806044E-2,2.344193608E-1,-1.861610413E-1
7.781394420E-1,3.802633286E-2,2.283107042E-1,-1.824958473E-1
7.802502230E-1,3.680460155E-2,2.209803313E-1,-1.776089370E-1
7.823610050E-1,3.558287397E-2,2.112064958E-1,-1.715002805E-1
7.844717860E-1,3.558287397E-2,1.965457499E-1,-1.678351015E-1
7.865825670E-1,3.680460155E-2,1.855501831E-1,-1.629481763E-1
7.886933480E-1,3.191768378E-2,1.745546162E-1,-1.580612659E-1
7.908041300E-1,3.191768378E-2,1.611155868E-1,-1.531743407E-1
7.929149110E-1,3.069595434E-2,1.501200199E-1,-1.495091617E-1
7.950256920E-1,2.703076601E-2,1.342375278E-1,-1.446222365E-1
7.971364730E-1,2.703076601E-2,1.220202371E-1,-1.397353113E-1
7.992472550E-1,2.458730713E-2,1.085812151E-1,-1.360701323E-1
8.013580360E-1,2.092211880E-2,9.514218569E-2,-1.311832070E-1
8.034688170E-1,1.847865991E-2,8.048143238E-2,-1.262962967E-1
8.055795980E-1,1.725693047E-2,6.826414168E-2,-1.214093715E-1
8.076903280E-1,1.481347065E-2,5.238165334E-2,-1.177441850E-1
8.098011090E-1,1.359174121E-2,3.649916872E-2,-1.128572673E-1
8.119118900E-1,9.926552884E-3,2.306014486E-2,-1.091920808E-1
8.140227230E-1,8.704823442E-3,1.084284950E-2,-1.043051630E-1
8.161334530E-1,7.483093534E-3,-6.261364091E-3,-9.941824526E-2
8.182442340E-1,6.261364091E-3,-1.847865991E-2,-9.330959618E-2
8.203550150E-1,3.817904973E-3,-3.313941509E-2,-8.842267841E-2
8.224657960E-1,1.374445739E-3,-4.535670951E-2,-8.231402934E-2
8.245765780E-1,1.374445739E-3,-5.879573524E-2,-7.742711157E-2
8.266873590E-1,-1.069013379E-3,-6.979130208E-2,-6.887500733E-2
8.287981400E-1,-2.290742937E-3,-8.200860023E-2,-6.154462695E-2
8.309089210E-1,-3.512472380E-3,-9.544762224E-2,-5.543597788E-2
8.330197030E-1,-3.512472380E-3,-1.039997265E-1,-4.932733253E-2
8.351304840E-1,-3.512472380E-3,-1.125518382E-1,-4.199695215E-2
8.372412650E-1,-5.955931731E-3,-1.211039424E-1,-3.466657549E-2
8.393520460E-1,-5.955931731E-3,-1.333212405E-1,-2.733619884E-2
8.414628280E-1,-5.955931731E-3,-1.382081509E-1,-2.000582218E-2
8.435736090E-1,-7.177661173E-3,-1.455385387E-1,-1.267544460E-2
8.456843900E-1,-5.955931731E-3,-1.492037177E-1,-6.566796452E-3
8.477951710E-1,-8.399390616E-3,-1.540906429E-1,7.635809598E-4
8.499059530E-1,-1.206457894E-2,-1.601992846E-1,6.872228812E-3
8.520167340E-1,-1.450803876E-2,-1.650862098E-1,1.420260593E-2
8.541275150E-1,-1.817322709E-2,-1.663079411E-1,2.275471389E-2
8.562382960E-1,-1.939495653E-2,-1.675296724E-1,2.886336111E-2
8.583490260E-1,-2.306014486E-2,-1.687513888E-1,3.741546720E-2
8.604598070E-1,-2.550360374E-2,-1.687513888E-1,4.474584386E-2
8.625706400E-1,-2.794706449E-2,-1.663079411E-1,5.085449293E-2
8.646813690E-1,-2.916879393E-2,-1.663079411E-1,5.818486959E-2
8.667921510E-1,-3.039052337E-2,-1.638644785E-1,6.551524997E-2
8.689029320E-1,-3.039052337E-2,-1.601992846E-1,7.406735420E-2
8.710137130E-1,-3.161225095E-2,-1.553123742E-1,8.139773458E-2
8.731244940E-1,-3.161225095E-2,-1.540906429E-1,8.994983882E-2
8.752352760E-1,-3.161225095E-2,-1.504254490E-1,9.850194305E-2
8.773460570E-1,-3.161225095E-2,-1.430950761E-1,1.058323234E-1
8.794568380E-1,-3.161225095E-2,-1.357647032E-1,1.143844277E-1
8.815676190E-1,-2.794706449E-2,-1.259908676E-1,1.229365394E-1
8.836784010E-1,-2.916879393E-2,-1.186604798E-1,1.302669197E-1
8.857891820E-1,-2.794706449E-2,-1.052214578E-1,1.375972927E-1
8.878999630E-1,-2.672533318E-2,-9.178243577E-2,1.461493969E-1
8.900107440E-1,-2.672533318E-2,-7.956513762E-2,1.547015011E-1
8.921215260E-1,-2.794706449E-2,-6.123919412E-2,1.608101577E-1
8.942323070E-1,-2.794706449E-2,-4.413498193E-2,1.693622619E-1
8.963430880E-1,-2.794706449E-2,-2.580903657E-2,1.779143661E-1
8.984538690E-1,-2.672533318E-2,-8.704823442E-3,1.864664704E-1
9.005646510E-1,-2.916879393E-2,1.084284950E-2,1.962403059E-1
9.026754320E-1,-2.916879393E-2,2.916879393E-2,2.035706937E-1
9.047861610E-1,-2.794706449E-2,4.871646687E-2,2.133445293E-1
9.068969940E-1,-2.672533318E-2,6.704241037E-2,2.218966335E-1
9.090077230E-1,-2.550360374E-2,8.659008145E-2,2.304487377E-1
9.111185050E-1,-2.428187430E-2,1.036942974E-1,2.402225733E-1
9.132292860E-1,-2.550360374E-2,1.207985133E-1,2.475529462E-1
9.153400670E-1,-2.428187430E-2,1.391244531E-1,2.585485280E-1
9.174508480E-1,-2.306014486E-2,1.550069451E-1,2.671006322E-1
9.195616300E-1,-2.061668597E-2,1.684459597E-1,2.756527364E-1
9.216724110E-1,-2.061668597E-2,1.843284518E-1,2.854265571E-1
9.237831920E-1,-2.061668597E-2,1.977674663E-1,2.939786613E-1
9.258939730E-1,-2.061668597E-2,2.075413018E-1,3.025307953E-1
9.280047550E-1,-1.939495653E-2,2.160934210E-1,3.123046160E-1
9.301155360E-1,-2.061668597E-2,2.234237939E-1,3.208567202E-1
9.322263170E-1,-2.061668597E-2,2.295324355E-1,3.294088244E-1
9.343370980E-1,-2.428187430E-2,2.307541668E-1,3.391826749E-1
9.364478800E-1,-2.550360374E-2,2.331976295E-1,3.489564955E-1
9.385586610E-1,-2.794706449E-2,2.307541668E-1,3.575085998E-1
9.406694420E-1,-3.039052337E-2,2.283107042E-1,3.685041666E-1
9.427802230E-1,-3.405570984E-2,2.185368687E-1,3.758345544E-1
9.448910050E-1,-3.649916872E-2,2.087630332E-1,3.856084049E-1
9.470017860E-1,-3.894263133E-2,1.977674663E-1,3.953822255E-1
9.491125670E-1,-4.382954910E-2,1.831067204E-1,4.051560760E-1
9.512233480E-1,-4.749473557E-2,1.660024971E-1,4.149298966E-1
9.533341300E-1,-4.993819445E-2,1.476765573E-1,4.247037470E-1
9.554449110E-1,-5.238165334E-2,1.293506175E-1,4.344775677E-1
9.575556920E-1,-5.604684353E-2,1.073594838E-1,4.430296719E-1
9.596664730E-1,-5.849030241E-2,8.414662629E-2,4.540252388E-1
9.617772030E-1,-6.093376130E-2,6.215549260E-2,4.650208056E-1
9.638879840E-1,-6.459894776E-2,3.772090003E-2,4.747946560E-1
9.659987650E-1,-6.704241037E-2,1.206457894E-2,4.845684767E-1
9.681095460E-1,-7.070759684E-2,-1.359174121E-2,4.943423271E-1
9.702203280E-1,-7.315105945E-2,-4.046979174E-2,5.053378940E-1
9.723311090E-1,-7.437278330E-2,-6.490438432E-2,5.151117444E-1
9.744418900E-1,-7.681624591E-2,-9.056070447E-2,5.248855352E-1
9.765526710E-1,-7.925970852E-2,-1.174387559E-1,5.346593857E-1
9.786634530E-1,-8.170316368E-2,-1.430950761E-1,5.432115197E-1
9.807742340E-1,-8.536835015E-2,-1.663079411E-1,5.542070866E-1
9.828850150E-1,-8.659008145E-2,-1.882990748E-1,5.627591610E-1
9.849957960E-1,-9.025526792E-2,-2.090684772E-1,5.725330114E-1
9.871065780E-1,-9.392046183E-2,-2.261726856E-1,5.798633695E-1
9.892173590E-1,-9.514218569E-2,-2.432768941E-1,5.908589363E-1
9.913281400E-1,-1.000291109E-1,-2.579376400E-1,5.994110703E-1
9.934389210E-1,-1.000291109E-1,-2.713766694E-1,6.091849208E-1
9.955497030E-1,-1.049160287E-1,-2.823722363E-1,6.177369952E-1
9.976604840E-1,-1.061377525E-1,-2.897026241E-1,6.275108457E-1
9.997712650E-1,-1.073594838E-1,-2.933678031E-1,6.360629797E-1
1.001882046E0,-1.110246703E-1,-2.958112657E-1,6.458367705E-1
1.003992828E0,-1.098029464E-1,-2.970330119E-1,6.531671882E-1
1.006103609E0,-1.098029464E-1,-2.970330119E-1,6.629409790E-1
1.008214338E0,-1.110246703E-1,-2.897026241E-1,6.727148294E-1
1.010325171E0,-1.110246703E-1,-2.848156989E-1,6.812669635E-1
1.012435901E0,-1.122464016E-1,-2.787070572E-1,6.910407543E-1
1.014546682E0,-1.110246703E-1,-2.689332068E-1,7.008146048E-1
1.016657463E0,-1.110246703E-1,-2.542724609E-1,7.105884552E-1
1.018768244E0,-1.098029464E-1,-2.383899838E-1,7.203623056E-1
1.020879026E0,-1.073594838E-1,-2.237292230E-1,7.313578725E-1
1.022989807E0,-1.061377525E-1,-2.041815519E-1,7.399099469E-1
1.025100588E0,-1.073594838E-1,-1.858556122E-1,7.509055138E-1
1.027211369E0,-1.073594838E-1,-1.663079411E-1,7.606793642E-1
1.029322151E0,-1.061377525E-1,-1.443168074E-1,7.704532146E-1
1.031432932E0,-1.085812151E-1,-1.211039424E-1,7.802270651E-1
1.033543713E0,-1.085812151E-1,-9.911280870E-2,7.900008559E-1
1.035654494E0,-1.085812151E-1,-7.589995116E-2,8.009964228E-1
1.037765276E0,-1.085812151E-1,-5.146535859E-2,8.132137656E-1
1.039876057E0,-1.098029464E-1,-2.825249545E-2,8.229875565E-1
1.041986838E0,-1.098029464E-1,-3.817904973E-3,8.352048993E-1
1.044097619E0,-1.098029464E-1,1.939495653E-2,8.474221826E-1
1.046208401E0,-1.085812151E-1,4.016435891E-2,8.571959734E-1
1.048319182E0,-1.098029464E-1,6.215549260E-2,8.706350327E-1
1.050429963E0,-1.085812151E-1,8.414662629E-2,8.828523159E-1
1.052540744E0,-1.073594838E-1,1.012508348E-1,8.975130916E-1
1.054651526E0,-1.061377525E-1,1.207985133E-1,9.097303748E-1
1.056762255E0,-1.061377525E-1,1.403461844E-1,9.207259417E-1
1.058873036E0,-1.061377525E-1,1.574503928E-1,9.341649413E-1
1.060983817E0,-1.049160287E-1,1.745546162E-1,9.463822842E-1
1.063094598E0,-1.049160287E-1,1.916588247E-1,9.610430002E-1
1.065205380E0,-1.061377525E-1,2.075413018E-1,9.720385671E-1
1.067316161E0,-1.073594838E-1,2.209803313E-1,9.866993427E-1
1.069426942E0,-1.073594838E-1,2.331976295E-1,1.000138402E0
1.071537723E0,-1.110246703E-1,2.454149276E-1,1.012355685E0
1.073648505E0,-1.134681329E-1,2.551887631E-1,1.024572968E0
1.075759286E0,-1.146898642E-1,2.625191510E-1,1.038012028E0
1.077870067E0,-1.183550507E-1,2.637408674E-1,1.050229311E0
1.079980848E0,-1.232419685E-1,2.649625838E-1,1.062446594E0
1.082091630E0,-1.281288862E-1,2.637408674E-1,1.074663877E0
1.084202411E0,-1.305723488E-1,2.551887631E-1,1.088102937E0
1.086313192E0,-1.342375278E-1,2.466366589E-1,1.099098444E0
1.088423973E0,-1.366809905E-1,2.344193608E-1,1.112537503E0
1.090534755E0,-1.379027218E-1,2.185368687E-1,1.123533010E0
1.092645536E0,-1.427896470E-1,2.002109289E-1,1.136972070E0
1.094756317E0,-1.464548260E-1,1.794415265E-1,1.147967696E0
1.096867098E0,-1.464548260E-1,1.598938555E-1,1.157741427E0
1.098977880E0,-1.513417512E-1,1.354592592E-1,1.169958711E0
1.101088661E0,-1.550069451E-1,1.110246703E-1,1.180954337E0
1.103199442E0,-1.562286615E-1,8.414662629E-2,1.193171620E0
1.105310171E0,-1.623373181E-1,5.726857483E-2,1.201723695E0
1.107420953E0,-1.647807807E-1,3.039052337E-2,1.212719321E0
1.109531734E0,-1.672242284E-1,1.069013379E-3,1.222493172E0
1.111642515E0,-1.708894223E-1,-2.703076601E-2,1.232267022E0
1.113753296E0,-1.745546162E-1,-5.513054505E-2,1.239597321E0
1.115864078E0,-1.769980639E-1,-8.567378670E-2,1.249371171E0
1.117974859E0,-1.794415265E-1,-1.162170246E-1,1.257923245E0
1.120085640E0,-1.831067204E-1,-1.467602700E-1,1.266475439E0
1.122196421E0,-1.867718995E-1,-1.748600453E-1,1.275027514E0
1.124307203E0,-1.879936308E-1,-2.029598206E-1,1.282357931E0
1.126417984E0,-1.904370934E-1,-2.298378795E-1,1.288466573E0
1.128528765E0,-1.916588247E-1,-2.542724609E-1,1.294575214E0
1.130639546E0,-1.965457499E-1,-2.774853408E-1,1.303127289E0
1.132750328E0,-1.989891976E-1,-2.970330119E-1,1.310457706E0
1.134861109E0,-2.014326602E-1,-3.153589368E-1,1.316566348E0
1.136971890E0,-2.038761228E-1,-3.312414289E-1,1.321453214E0
1.139082671E0,-2.038761228E-1,-3.446804583E-1,1.326340199E0
1.141193453E0,-2.050978541E-1,-3.605629504E-1,1.331227064E0
1.143304234E0,-2.063195854E-1,-3.715584874E-1,1.336113930E0
1.145415015E0,-2.075413018E-1,-3.801106215E-1,1.342222691E0
1.147525796E0,-2.063195854E-1,-3.923279047E-1,1.345887780E0
1.149636578E0,-2.075413018E-1,-4.008800089E-1,1.353218198E0
1.151747307E0,-2.038761228E-1,-4.069886506E-1,1.355661631E0
1.153858088E0,-2.075413018E-1,-4.130973220E-1,1.361770272E0
1.155968869E0,-2.050978541E-1,-4.192059636E-1,1.366657257E0
1.158079651E0,-2.038761228E-1,-4.240928590E-1,1.371544123E0
1.160190432E0,-2.026543915E-1,-4.265363216E-1,1.376431108E0
1.162301213E0,-2.014326602E-1,-4.289797843E-1,1.381317973E0
1.164411994E0,-2.014326602E-1,-4.253146052E-1,1.384983182E0
1.166522776E0,-2.026543915E-1,-4.216494262E-1,1.391091824E0
1.168633557E0,-2.014326602E-1,-4.179842174E-1,1.395978689E0
1.170744338E0,-2.002109289E-1,-4.082103968E-1,1.399643898E0
1.172855119E0,-1.989891976E-1,-3.996582925E-1,1.402087331E0
1.174965901E0,-1.977674663E-1,-3.911061883E-1,1.409417748E0
1.177076682E0,-1.965457499E-1,-3.788888752E-1,1.413082957E0
1.179187463E0,-1.953240186E-1,-3.654498458E-1,1.416748166E0
1.181298244E0,-1.928805560E-1,-3.495673835E-1,1.420413375E0
1.183409026E0,-1.928805560E-1,-3.349066079E-1,1.426522017E0
1.185519807E0,-1.892153621E-1,-3.190241456E-1,1.430187106E0
1.187630588E0,-1.879936308E-1,-3.006981909E-1,1.433852315E0
1.189741369E0,-1.867718995E-1,-2.811505198E-1,1.438739300E0
1.191852151E0,-1.855501831E-1,-2.640463114E-1,1.443626165E0
1.193962932E0,-1.831067204E-1,-2.432768941E-1,1.446069598E0
1.196073713E0,-1.831067204E-1,-2.237292230E-1,1.450956583E0
1.198184494E0,-1.806632578E-1,-2.041815519E-1,1.454621792E0
1.200295223E0,-1.818849891E-1,-1.834121495E-1,1.457065225E0
1.202406057E0,-1.794415265E-1,-1.626427472E-1,1.461952090E0
1.204516786E0,-1.818849891E-1,-1.406516135E-1,1.465617299E0
1.206627567E0,-1.806632578E-1,-1.211039424E-1,1.469282508E0
1.208738348E0,-1.794415265E-1,-1.039997265E-1,1.472947717E0
1.210849130E0,-1.769980639E-1,-8.200860023E-2,1.475391150E0
1.212959911E0,-1.769980639E-1,-6.246092543E-2,1.479056358E0
1.215070692E0,-1.769980639E-1,-4.535670951E-2,1.481499791E0
1.217181473E0,-1.782197952E-1,-2.580903657E-2,1.483943224E0
1.219292255E0,-1.769980639E-1,-1.114828233E-2,1.486386776E0
1.221403036E0,-1.757763475E-1,3.512472380E-3,1.487608433E0
1.223513817E0,-1.733328849E-1,2.183841541E-2,1.490051866E0
1.225624598E0,-1.721111536E-1,3.527744114E-2,1.491273642E0
1.227735380E0,-1.708894223E-1,4.993819445E-2,1.493717074E0
1.229846161E0,-1.721111536E-1,6.215549260E-2,1.493717074E0
1.231956942E0,-1.696676910E-1,7.192932814E-2,1.493717074E0
1.234067723E0,-1.708894223E-1,8.170316368E-2,1.494938850E0
1.236178505E0,-1.708894223E-1,8.781181276E-2,1.492495418E0
1.238289286E0,-1.708894223E-1,9.636391699E-2,1.492495418E0
1.240400067E0,-1.733328849E-1,9.758564830E-2,1.492495418E0
1.242510848E0,-1.745546162E-1,9.880737960E-2,1.493717074E0
1.244621630E0,-1.733328849E-1,1.036942974E-1,1.491273642E0
1.246732411E0,-1.757763475E-1,1.036942974E-1,1.490051866E0
1.248843192E0,-1.769980639E-1,1.024725661E-1,1.491273642E0
1.250953973E0,-1.782197952E-1,9.758564830E-2,1.487608433E0
1.253064755E0,-1.769980639E-1,9.269873053E-2,1.485165000E0
1.255175484E0,-1.782197952E-1,8.659008145E-2,1.483943224E0
1.257286265E0,-1.794415265E-1,7.925970852E-2,1.482721567E0
1.259397046E0,-1.782197952E-1,7.070759684E-2,1.480278134E0
1.261507828E0,-1.806632578E-1,5.971203372E-2,1.477834582E0
1.263618609E0,-1.806632578E-1,4.627300799E-2,1.476612926E0
1.265729390E0,-1.818849891E-1,3.161225095E-2,1.472947717E0
1.267840171E0,-1.818849891E-1,1.817322709E-2,1.468060732E0
1.269950901E0,-1.794415265E-1,2.290742937E-3,1.465617299E0
1.272061734E0,-1.806632578E-1,-1.725693047E-2,1.461952090E0
1.274172515E0,-1.794415265E-1,-3.191768378E-2,1.457065225E0
1.276283296E0,-1.831067204E-1,-5.024362728E-2,1.452178240E0
1.278394078E0,-1.855501831E-1,-6.734783947E-2,1.447291374E0
1.280504859E0,-1.879936308E-1,-8.567378670E-2,1.444847941E0
1.282615640E0,-1.904370934E-1,-1.027780026E-1,1.437517524E0
1.284726421E0,-1.904370934E-1,-1.211039424E-1,1.433852315E0
1.286837203E0,-1.941022873E-1,-1.369864196E-1,1.427743673E0
1.288947984E0,-1.953240186E-1,-1.565341055E-1,1.424078465E0
1.291058765E0,-1.941022873E-1,-1.736383140E-1,1.420413375E0
1.293169546E0,-1.977674663E-1,-1.882990748E-1,1.415526390E0
1.295280328E0,-1.941022873E-1,-2.017380893E-1,1.410639524E0
1.297391057E0,-1.916588247E-1,-2.139553875E-1,1.405752540E0
1.299501838E0,-1.904370934E-1,-2.237292230E-1,1.400865674E0
1.301612671E0,-1.892153621E-1,-2.322813272E-1,1.395978689E0
1.303723401E0,-1.879936308E-1,-2.371682525E-1,1.391091824E0
1.305834182E0,-1.843284518E-1,-2.383899838E-1,1.383761406E0
1.307944963E0,-1.831067204E-1,-2.383899838E-1,1.380096197E0
1.310055744E0,-1.855501831E-1,-2.371682525E-1,1.372765899E0
1.312166526E0,-1.843284518E-1,-2.347247899E-1,1.365435481E0
1.314277307E0,-1.818849891E-1,-2.310595959E-1,1.361770272E0
1.316388088E0,-1.806632578E-1,-2.286161482E-1,1.354439974E0
1.318498869E0,-1.782197952E-1,-2.188423127E-1,1.349552989E0
1.320609651E0,-1.782197952E-1,-2.115119249E-1,1.343444347E0
1.322720432E0,-1.782197952E-1,-2.041815519E-1,1.337335706E0
1.324831213E0,-1.769980639E-1,-1.931859851E-1,1.332448840E0
1.326941994E0,-1.769980639E-1,-1.797469556E-1,1.326340199E0
1.329052776E0,-1.769980639E-1,-1.675296724E-1,1.321453214E0
1.331163557E0,-1.757763475E-1,-1.492037177E-1,1.315344572E0
1.333274338E0,-1.757763475E-1,-1.333212405E-1,1.309235930E0
1.335385119E0,-1.757763475E-1,-1.174387559E-1,1.304349065E0
1.337495901E0,-1.745546162E-1,-9.911280870E-2,1.298240423E0
1.339606682E0,-1.721111536E-1,-8.078686893E-2,1.293353438E0
1.341717463E0,-1.708894223E-1,-6.123919412E-2,1.288466573E0
1.343828244E0,-1.684459597E-1,-4.169152305E-2,1.281136155E0
1.345939026E0,-1.660024971E-1,-2.336557768E-2,1.277470946E0
1.348049755E0,-1.635590494E-1,-3.817904973E-3,1.271362305E0
1.350160536E0,-1.623373181E-1,1.450803876E-2,1.265253663E0
1.352271317E0,-1.598938555E-1,3.161225095E-2,1.259145021E0
1.354382098E0,-1.562286615E-1,4.871646687E-2,1.253036380E0
1.356492880E0,-1.537852138E-1,6.337722391E-2,1.246927738E0
1.358603661E0,-1.513417512E-1,7.315105945E-2,1.239597321E0
1.360714442E0,-1.501200199E-1,8.414662629E-2,1.233488679E0
1.362825223E0,-1.464548260E-1,9.269873053E-2,1.226158381E0
1.364936005E0,-1.464548260E-1,1.012508348E-1,1.220049739E0
1.367046786E0,-1.464548260E-1,1.049160287E-1,1.212719321E0
1.369157567E0,-1.440113783E-1,1.073594838E-1,1.204167247E0
1.371268348E0,-1.464548260E-1,1.098029464E-1,1.199280262E0
1.373379130E0,-1.476765573E-1,1.110246703E-1,1.189506412E0
1.375489911E0,-1.488982886E-1,1.085812151E-1,1.180954337E0
1.377600692E0,-1.476765573E-1,1.061377525E-1,1.173623919E0
1.379711473E0,-1.525634825E-1,1.036942974E-1,1.165071845E0
1.381822255E0,-1.537852138E-1,9.636391699E-2,1.156519771E0
1.383933036E0,-1.550069451E-1,8.659008145E-2,1.147967696E0
1.386043817E0,-1.537852138E-1,7.803797722E-2,1.140637279E0
1.388154598E0,-1.513417512E-1,6.582067907E-2,1.132085204E0
1.390265380E0,-1.537852138E-1,5.482511222E-2,1.124754786E0
1.392376161E0,-1.488982886E-1,4.260781780E-2,1.117424369E0
1.394486890E0,-1.488982886E-1,2.794706449E-2,1.110094070E0
1.396597671E0,-1.488982886E-1,1.450803876E-2,1.101541877E0
1.398708453E0,-1.452330947E-1,1.069013379E-3,1.092989802E0
1.400819234E0,-1.452330947E-1,-7.483093534E-3,1.084437728E0
1.402930015E0,-1.452330947E-1,-2.092211880E-2,1.075885534E0
1.405040796E0,-1.452330947E-1,-2.825249545E-2,1.068555236E0
1.407151578E0,-1.452330947E-1,-3.436114267E-2,1.061224818E0
1.409262359E0,-1.452330947E-1,-4.291325063E-2,1.052672744E0
1.411373140E0,-1.464548260E-1,-4.902189970E-2,1.044120669E0
1.413483921E0,-1.488982886E-1,-5.024362728E-2,1.036790252E0
1.415594703E0,-1.488982886E-1,-5.635227636E-2,1.027016401E0
1.417705484E0,-1.501200199E-1,-6.001746282E-2,1.018464327E0
1.419816265E0,-1.501200199E-1,-6.246092543E-2,1.011133909E0
1.421927046E0,-1.501200199E-1,-6.490438432E-2,1.001360059E0
1.424037828E0,-1.501200199E-1,-6.979130208E-2,9.928079844E-1
1.426148609E0,-1.476765573E-1,-7.223475724E-2,9.842558503E-1
1.428259390E0,-1.452330947E-1,-7.712167501E-2,9.744820595E-1
1.430370171E0,-1.440113783E-1,-8.200860023E-2,9.671516418E-1
1.432480953E0,-1.452330947E-1,-8.689551800E-2,9.610430002E-1
1.434591734E0,-1.415679157E-1,-8.811724186E-2,9.524909258E-1
1.436702515E0,-1.379027218E-1,-9.300415963E-2,9.451605082E-1
1.438813296E0,-1.330158114E-1,-9.666935354E-2,9.378301501E-1
1.440924026E0,-1.354592592E-1,-9.911280870E-2,9.292780161E-1
1.443034859E0,-1.330158114E-1,-1.015562713E-1,9.231693745E-1
1.445145588E0,-1.330158114E-1,-1.052214578E-1,9.170607328E-1
1.447256317E0,-1.330158114E-1,-1.088866442E-1,9.085086584E-1
1.449367151E0,-1.342375278E-1,-1.088866442E-1,9.036217332E-1
1.451477932E0,-1.342375278E-1,-1.137735620E-1,8.975130916E-1
1.453588713E0,-1.354592592E-1,-1.162170246E-1,8.914044499E-1
1.455699494E0,-1.342375278E-1,-1.211039424E-1,8.865175247E-1
1.457810276E0,-1.354592592E-1,-1.259908676E-1,8.828523159E-1
1.459921057E0,-1.366809905E-1,-1.345429718E-1,8.779653907E-1
1.462031838E0,-1.366809905E-1,-1.418733448E-1,8.730784655E-1
1.464142619E0,-1.366809905E-1,-1.492037177E-1,8.694133162E-1
1.466253401E0,-1.354592592E-1,-1.589775532E-1,8.669698238E-1
1.468364182E0,-1.342375278E-1,-1.699731201E-1,8.620828986E-1
1.470474963E0,-1.366809905E-1,-2.054032832E-1,8.486438990E-1
1.472585744E0,-5.849030241E-2,-3.092502952E-1,8.046616316E-1
1.474696526E0,4.413498193E-2,-4.350884259E-1,7.570141554E-1
1.476807307E0,1.186604798E-1,-5.523744822E-1,7.154753804E-1
1.478918088E0,1.675296724E-1,-6.684387922E-1,6.714931130E-1
1.481028869E0,1.931859851E-1,-7.796161771E-1,6.238456368E-1
1.483139651E0,1.809686869E-1,-8.724676371E-1,5.737547278E-1
1.485250432E0,1.296560466E-1,-9.408844709E-1,5.236638188E-1
1.487361213E0,5.879573524E-2,-9.909753799E-1,4.686860144E-1
1.489471942E0,-2.306014486E-2,-1.026405573E0,4.100429714E-1
1.491582723E0,-1.036942974E-1,-1.045953274E0,3.526217043E-1
1.493693505E0,-1.745546162E-1,-1.055727005E0,2.890917659E-1
1.495804286E0,-2.258672565E-1,-1.055727005E0,2.255618125E-1
1.497915067E0,-2.503018379E-1,-1.048396707E0,1.608101577E-1
1.500025796E0,-2.478583902E-1,-1.031292439E0,9.972367436E-2
1.502136630E0,-2.160934210E-1,-1.011744738E0,3.985892609E-2
1.504247411E0,-1.574503928E-1,-9.787580967E-1,-1.756236330E-2
1.506358192E0,-8.292489499E-2,-9.445496798E-1,-7.498364896E-2
1.508468973E0,-1.069013379E-3,-8.981239200E-1,-1.287397593E-1
1.510579755E0,8.078686893E-2,-8.345940113E-1,-1.837175786E-1
1.512690536E0,1.516471803E-1,-7.625119686E-1,-2.386954129E-1
1.514801317E0,2.078467458E-1,-6.782126427E-1,-2.961167097E-1
1.516912098E0,2.420551628E-1,-5.841394663E-1,-3.559814394E-1
1.519022880E0,2.530507445E-1,-4.754055142E-1,-4.158461988E-1
1.521133661E0,2.432768941E-1,-3.581194878E-1,-4.793761373E-1
1.523244442E0,2.176205814E-1,-2.347247899E-1,-5.429060459E-1
1.525355223E0,1.773035079E-1,-1.064431891E-1,-6.076577306E-1
1.527466005E0,1.333212405E-1,2.550360374E-2,-6.687442064E-1
1.529576786E0,9.056070447E-2,1.574503928E-1,-7.310523987E-1
1.531687567E0,5.146535859E-2,2.893971801E-1,-7.921388745E-1
1.533798348E0,2.336557768E-2,4.140135944E-1,-8.520036340E-1
1.535909130E0,9.926552884E-3,5.349648595E-1,-9.082031846E-1
1.538019859E0,1.114828233E-2,6.461422443E-1,-9.631810188E-1
1.540130640E0,3.191768378E-2,7.512109876E-1,-1.014493704E0
1.542241473E0,6.856957078E-2,8.452841640E-1,-1.060919404E0
1.544352203E0,1.149952933E-1,9.356921315E-1,-1.107345104E0
1.546462984E0,1.724165827E-1,1.016326308E0,-1.151327372E0
1.548573765E0,2.310595959E-1,1.089630008E0,-1.190422773E0
1.550684546E0,2.909243405E-1,1.156825185E0,-1.230739832E0
1.552795328E0,3.446804583E-1,1.216689944E0,-1.266170025E0
1.554906109E0,3.923279047E-1,1.265559077E0,-1.301600099E0
1.557016890E0,4.240928590E-1,1.305876136E0,-1.335808516E0
1.559127671E0,4.436405599E-1,1.337641120E0,-1.370016932E0
1.561238453E0,4.473057389E-1,1.355967045E0,-1.405447125E0
1.563349234E0,4.387536347E-1,1.364519238E0,-1.440877318E0
1.565460015E0,4.192059636E-1,1.363297462E0,-1.476307511E0
1.567570796E0,3.911061883E-1,1.348636746E0,-1.509294152E0
1.569681578E0,3.605629504E-1,1.321758628E0,-1.541059136E0
1.571792359E0,3.300196826E-1,1.285106778E0,-1.576489329E0
1.573903088E0,3.006981909E-1,1.232572436E0,-1.608254194E0
1.576013921E0,2.762635946E-1,1.167820692E0,-1.640019178E0
1.578124703E0,2.579376400E-1,1.095738649E0,-1.669340730E0
1.580235484E0,2.457203567E-1,1.013882875E0,-1.696218729E0
1.582346265E0,2.408334464E-1,9.246965647E-1,-1.721875072E0
1.584457046E0,2.469420880E-1,8.220712543E-1,-1.747531414E0
1.586567776E0,2.567159235E-1,7.170025110E-1,-1.769522548E0
1.588678557E0,2.701549530E-1,6.046034098E-1,-1.791513681E0
1.590789338E0,2.909243405E-1,4.848739207E-1,-1.813504815E0
1.592900119E0,3.080285788E-1,3.602575064E-1,-1.834274173E0
1.595010901E0,3.239110410E-1,2.356410921E-1,-1.855043650E0
1.597121682E0,3.336848915E-1,1.098029464E-1,-1.875813007E0
1.599232463E0,3.385718167E-1,-1.237001177E-2,-1.899025917E0
1.601343244E0,3.361283541E-1,-1.345429718E-1,-1.922238708E0
1.603454026E0,3.239110410E-1,-2.518289983E-1,-1.944229841E0
1.605564807E0,3.104720116E-1,-3.605629504E-1,-1.968664527E0
1.607675588E0,2.909243405E-1,-4.631882310E-1,-1.993099093E0
1.609786369E0,2.652680278E-1,-5.548179150E-1,-2.017533541E0
1.611897151E0,2.396117151E-1,-6.403390169E-1,-2.043190002E0
1.614007932E0,2.151771188E-1,-7.148644924E-1,-2.067624569E0
1.616118713E0,1.944077164E-1,-7.820596099E-1,-2.089615583E0
1.618229494E0,1.773035079E-1,-8.431460857E-1,-2.112828493E0
1.620340276E0,1.675296724E-1,-8.956804872E-1,-2.136041403E0
1.622451057E0,1.577558219E-1,-9.445496798E-1,-2.158032656E0
1.624561838E0,1.565341055E-1,-9.848667383E-1,-2.182467222E0
1.626672619E0,1.614210159E-1,-1.022740364E0,-2.205679893E0
1.628783401E0,1.650862098E-1,-1.052061915E0,-2.228892803E0
1.630894130E0,1.699731201E-1,-1.077718139E0,-2.254549265E0
1.633004911E0,1.760817766E-1,-1.097265840E0,-2.281427145E0
1.635115692E0,1.821904182E-1,-1.100931048E0,-2.304640055E0
1.637226421E0,1.846338809E-1,-1.099709272E0,-2.333961725E0
1.639337255E0,1.846338809E-1,-1.087491989E0,-2.362061501E0
1.641448036E0,1.834121495E-1,-1.066722631E0,-2.391382933E0
1.643558817E0,1.809686869E-1,-1.036179423E0,-2.421926022E0
1.645669598E0,1.724165827E-1,-9.885319471E-1,-2.453691006E0
1.647780380E0,1.614210159E-1,-9.347758293E-1,-2.484234333E0
1.649891161E0,1.492037177E-1,-8.688024282E-1,-2.517220974E0
1.652001942E0,1.382081509E-1,-7.832813859E-1,-2.550207853E0
1.654112723E0,1.284343153E-1,-6.940951347E-1,-2.583194494E0
1.656223505E0,1.174387559E-1,-6.024653912E-1,-2.618624687E0
1.658334286E0,1.137735620E-1,-5.096139312E-1,-2.650389671E0
1.660445067E0,1.101083755E-1,-4.143190384E-1,-2.687041521E0
1.662555848E0,1.162170246E-1,-3.202458620E-1,-2.722471714E0
1.664666630E0,1.259908676E-1,-2.286161482E-1,-2.759123564E0
1.666777411E0,1.430950761E-1,-1.357647032E-1,-2.795775414E0
1.668888192E0,1.687513888E-1,-4.169152305E-2,-2.829983711E0
1.670998973E0,1.968511790E-1,5.115992576E-2,-2.866635799E0
1.673109755E0,2.298378795E-1,1.415679157E-1,-2.904509306E0
1.675220536E0,2.591593862E-1,2.331976295E-1,-2.941161156E0
1.677331317E0,2.884808779E-1,3.236056268E-1,-2.977813005E0
1.679442046E0,3.153589368E-1,4.140135944E-1,-3.014464855E0
1.681552828E0,3.336848915E-1,5.044215918E-1,-3.054782152E0
1.683663609E0,3.495673835E-1,5.936078429E-1,-3.092655659E0
1.685774390E0,3.568977416E-1,6.779071689E-1,-3.130529165E0
1.687885171E0,3.605629504E-1,7.585413456E-1,-3.169624567E0
1.689995901E0,3.617846668E-1,8.330668211E-1,-3.209941626E0
1.692106734E0,3.605629504E-1,9.027054310E-1,-3.249037027E0
1.694217515E0,3.593412042E-1,9.601266980E-1,-3.289354086E0
1.696328296E0,3.593412042E-1,1.008995891E0,-3.328449488E0
1.698439078E0,3.617846668E-1,1.052978158E0,-3.365101337E0
1.700549859E0,3.678933084E-1,1.083521366E0,-3.401753187E0
1.702660640E0,3.801106215E-1,1.103069067E0,-3.437183380E0
1.704771421E0,3.923279047E-1,1.111621141E0,-3.470170021E0
1.706882203E0,4.130973220E-1,1.105512500E0,-3.504378557E0
1.708992984E0,4.314232469E-1,1.090851784E0,-3.534921646E0
1.711103765E0,4.534143806E-1,1.067638874E0,-3.566686630E0
1.713214546E0,4.766272306E-1,1.033430457E0,-3.598451614E0
1.715325328E0,4.961749315E-1,9.906699657E-1,-3.627773285E0
1.717436109E0,5.145008564E-1,9.418007731E-1,-3.655873060E0
1.719546890E0,5.279398561E-1,8.831577301E-1,-3.683972836E0
1.721657619E0,5.426006317E-1,8.171843290E-1,-3.712072611E0
1.723768401E0,5.499309897E-1,7.414371371E-1,-3.740172386E0
1.725879182E0,5.548179150E-1,6.571378112E-1,-3.767050266E0
1.727989963E0,5.535961986E-1,5.679515004E-1,-3.793928385E0
1.730100744E0,5.535961986E-1,4.726566374E-1,-3.820806503E0
1.732211526E0,5.450441241E-1,3.724747896E-1,-3.845241070E0
1.734322307E0,5.364919901E-1,2.661843300E-1,-3.872119188E0
1.736433088E0,5.254964232E-1,1.611155868E-1,-3.896553755E0
1.738543869E0,5.157225728E-1,5.604684353E-2,-3.920988321E0
1.740654651E0,5.059487820E-1,-4.780016840E-2,-3.942979336E0
1.742765432E0,4.961749315E-1,-1.516471803E-1,-3.964970589E0
1.744876213E0,4.888445437E-1,-2.481638193E-1,-3.983296394E0
1.746986994E0,4.815141559E-1,-3.446804583E-1,-4.002844334E0
1.749097723E0,4.778489769E-1,-4.387536347E-1,-4.019948483E0
1.751208557E0,4.741837978E-1,-5.218312144E-1,-4.035830975E0
1.753319338E0,4.729620516E-1,-6.049088240E-1,-4.050491810E0
1.755430119E0,4.754055142E-1,-6.794343591E-1,-4.061487198E0
1.757540901E0,4.766272306E-1,-7.466294765E-1,-4.072482586E0
1.759651682E0,4.790706933E-1,-8.028290272E-1,-4.081034660E0
1.761762463E0,4.839576185E-1,-8.529199362E-1,-4.087143421E0
1.763873244E0,4.851793647E-1,-8.907935619E-1,-4.093252182E0
1.765984026E0,4.864010811E-1,-9.140064120E-1,-4.096917152E0
1.768094755E0,4.851793647E-1,-9.311106205E-1,-4.099360943E0
1.770205536E0,4.802924395E-1,-9.298889041E-1,-4.099360943E0
1.772316317E0,4.729620516E-1,-9.140064120E-1,-4.095695496E0
1.774427098E0,4.607447684E-1,-8.822414875E-1,-4.093252182E0
1.776537880E0,4.485274553E-1,-8.382592201E-1,-4.088365078E0
1.778648661E0,4.375318885E-1,-7.832813859E-1,-4.079813004E0
1.780759442E0,4.228711426E-1,-7.124210596E-1,-4.071260929E0
1.782870223E0,4.106538594E-1,-6.354520917E-1,-4.059043884E0
1.784981005E0,3.984365463E-1,-5.487092733E-1,-4.046826363E0
1.787091786E0,3.874409795E-1,-4.607447684E-1,-4.032165527E0
1.789202567E0,3.752236962E-1,-3.666715920E-1,-4.018726826E0
1.791313348E0,3.678933084E-1,-2.701549530E-1,-4.000400543E0
1.793424130E0,3.630063832E-1,-1.724165827E-1,-3.983296394E0
1.795534911E0,3.630063832E-1,-7.345648855E-2,-3.962527037E0
1.797645692E0,3.666715920E-1,2.428187430E-2,-3.939314365E0
1.799756473E0,3.776671588E-1,1.244636998E-1,-3.914879560E0
1.801867255E0,3.886627257E-1,2.258672565E-1,-3.889223337E0
1.803978036E0,4.021017551E-1,3.236056268E-1,-3.859901905E0
1.806088817E0,4.192059636E-1,4.213439822E-1,-3.831802130E0
1.808199598E0,4.363101721E-1,5.178605914E-1,-3.801258802E0
1.810310380E0,4.546361268E-1,6.033816934E-1,-3.769493818E0
1.812421161E0,4.705185890E-1,6.852375865E-1,-3.735285521E0
1.814531942E0,4.778489769E-1,7.585413456E-1,-3.702298641E0
1.816642671E0,4.778489769E-1,8.245147467E-1,-3.669312000E0
1.818753453E0,4.754055142E-1,8.770490885E-1,-3.636325359E0
1.820864234E0,4.668534100E-1,9.210313559E-1,-3.603338718E0
1.822975015E0,4.558578432E-1,9.515746236E-1,-3.567908525E0
1.825085796E0,4.473057389E-1,9.699005485E-1,-3.532478333E0
1.827196578E0,4.424188137E-1,9.772309065E-1,-3.495826483E0
1.829307359E0,4.399753511E-1,9.699005485E-1,-3.457952738E0
1.831418140E0,4.424188137E-1,9.540180564E-1,-3.420079231E0
1.833528921E0,4.424188137E-1,9.295834899E-1,-3.378540277E0
1.835639703E0,4.473057389E-1,8.941532969E-1,-3.337001562E0
1.837750484E0,4.521926641E-1,8.538362384E-1,-3.294240952E0
1.839861265E0,4.583013058E-1,8.025236130E-1,-3.250258684E0
1.841972046E0,4.570795596E-1,7.438805699E-1,-3.205054760E0
1.844082828E0,4.534143806E-1,6.779071689E-1,-3.159850836E0
1.846193609E0,4.460839927E-1,6.046034098E-1,-3.112203360E0
1.848304390E0,4.350884259E-1,5.227475166E-1,-3.064555883E0
1.850415171E0,4.179842174E-1,4.433351159E-1,-3.014464855E0
1.852525953E0,3.984365463E-1,3.590357602E-1,-2.964374065E0
1.854636734E0,3.764454126E-1,2.747364342E-1,-2.911839724E0
1.856747515E0,3.507890999E-1,1.904370934E-1,-2.858083487E0
1.858858244E0,3.263545036E-1,1.098029464E-1,-2.800662279E0
1.860969026E0,3.055851161E-1,3.527744114E-2,-2.743241072E0
1.863079807E0,2.872591615E-1,-3.802633286E-2,-2.680932760E0
1.865190588E0,2.689332068E-1,-9.544762224E-2,-2.614959478E0
1.867301369E0,2.530507445E-1,-1.382081509E-1,-2.544099092E0
1.869412151E0,2.420551628E-1,-1.626427472E-1,-2.467130184E0
1.871522932E0,2.310595959E-1,-1.699731201E-1,-2.385274172E0
1.873633713E0,2.261726856E-1,-1.638644785E-1,-2.296087980E0
1.875744494E0,2.188423127E-1,-1.492037177E-1,-2.202014923E0
1.877855276E0,2.139553875E-1,-1.198822111E-1,-2.105498075E0
1.879966057E0,2.090684772E-1,-8.445205539E-2,-2.001651049E0
1.882076838E0,2.029598206E-1,-4.046979174E-2,-1.896582365E0
1.884187619E0,1.968511790E-1,3.512472380E-3,-1.791513681E0
1.886298401E0,1.931859851E-1,4.871646687E-2,-1.680336237E0
1.888409130E0,1.907425225E-1,9.025526792E-2,-1.567937136E0
1.890519963E0,1.846338809E-1,1.281288862E-1,-1.456759810E0
1.892630744E0,1.809686869E-1,1.586721241E-1,-1.341917157E0
1.894741526E0,1.760817766E-1,1.806632578E-1,-1.231961489E0
1.896852307E0,1.675296724E-1,1.928805560E-1,-1.123227596E0
1.898963088E0,1.577558219E-1,1.867718995E-1,-1.019380569E0
1.901073869E0,1.455385387E-1,1.611155868E-1,-9.216422439E-1
1.903184651E0,1.320995092E-1,1.171333194E-1,-8.324559927E-1
1.905295432E0,1.223256737E-1,6.582067907E-2,-7.469348907E-1
1.907406161E0,1.088866442E-1,5.955931731E-3,-6.626355648E-1
1.909516942E0,9.422589093E-2,-5.513054505E-2,-5.807796717E-1
1.911627723E0,8.078686893E-2,-1.162170246E-1,-5.001455545E-1
1.913738505E0,6.734783947E-2,-1.797469556E-1,-4.207331240E-1
1.915849286E0,5.268708616E-2,-2.408334464E-1,-3.400989771E-1
1.917960067E0,3.802633286E-2,-3.055851161E-1,-2.606865466E-1
1.920070848E0,2.580903657E-2,-3.678933084E-1,-1.824958473E-1
1.922181630E0,1.114828233E-2,-4.326449931E-1,-1.030834317E-1
1.924292411E0,-3.512472380E-3,-4.912880063E-1,-2.611446939E-2
1.926403192E0,-1.450803876E-2,-5.511527658E-1,4.718930274E-2
1.928513973E0,-3.039052337E-2,-6.049088240E-1,1.229365394E-1
1.930624755E0,-4.260781780E-2,-6.537780166E-1,1.950185746E-1
1.932735536E0,-5.726857483E-2,-6.977602839E-1,2.671006322E-1
1.934846317E0,-6.826414168E-2,-7.368556261E-1,3.404043913E-1
1.936957098E0,-8.292489499E-2,-7.722858191E-1,4.100429714E-1
1.939067880E0,-9.392046183E-2,-8.040507436E-1,4.760163724E-1
1.941178661E0,-1.085812151E-1,-8.333722949E-1,5.419898033E-1
1.943289442E0,-1.195767820E-1,-8.565851450E-1,6.055197120E-1
1.945400223E0,-1.305723488E-1,-8.773545623E-1,6.690496206E-1
1.947511005E0,-1.379027218E-1,-8.981239200E-1,7.301361561E-1
1.949621734E0,-1.440113783E-1,-9.140064120E-1,7.875574231E-1
1.951732567E0,-1.513417512E-1,-9.274454713E-1,8.449786901E-1
1.953843348E0,-1.562286615E-1,-9.359975457E-1,8.975130916E-1
1.955954078E0,-1.623373181E-1,-9.408844709E-1,9.488257170E-1
1.958064859E0,-1.635590494E-1,-9.433279634E-1,9.989166260E-1
1.960175640E0,-1.672242284E-1,-9.384410381E-1,1.046564102E0
1.962286421E0,-1.721111536E-1,-9.298889041E-1,1.091768026E0
1.964397203E0,-1.757763475E-1,-9.164499044E-1,1.135750294E0
1.966507984E0,-1.794415265E-1,-9.030108452E-1,1.177289128E0
1.968618765E0,-1.831067204E-1,-8.846849203E-1,1.217606187E0
1.970729546E0,-1.867718995E-1,-8.663589954E-1,1.253036380E0
1.972840328E0,-1.892153621E-1,-8.443678617E-1,1.287244797E0
1.974951109E0,-1.928805560E-1,-8.211549520E-1,1.320231557E0
1.977061890E0,-1.965457499E-1,-7.930551767E-1,1.348331332E0
1.979172671E0,-1.989891976E-1,-7.588467598E-1,1.375209332E0
1.981283453E0,-2.026543915E-1,-7.148644924E-1,1.404530883E0
1.983394234E0,-2.038761228E-1,-6.623301506E-1,1.430187106E0
1.985505015E0,-2.050978541E-1,-6.085740328E-1,1.457065225E0
1.987615796E0,-2.026543915E-1,-5.474875569E-1,1.482721567E0
1.989726578E0,-1.953240186E-1,-4.815141559E-1,1.505934358E0
1.991837359E0,-1.892153621E-1,-4.094321132E-1,1.531590700E0
1.993948140E0,-1.782197952E-1,-3.349066079E-1,1.554803610E0
1.996058921E0,-1.635590494E-1,-2.579376400E-1,1.579238176E0
1.998169651E0,-1.452330947E-1,-1.785252392E-1,1.604894519E0
2.000280432E0,-1.281288862E-1,-9.666935354E-2,1.626885653E0
2.002391213E0,-1.073594838E-1,-1.359174121E-2,1.650098443E0
2.004501994E0,-9.269873053E-2,6.826414168E-2,1.673311353E0
2.006612776E0,-7.803797722E-2,1.452330947E-1,1.694080710E0
2.008723557E0,-6.459894776E-2,2.246455252E-1,1.714850187E0
2.010834338E0,-5.726857483E-2,2.991710305E-1,1.735619545E0
2.012945119E0,-4.993819445E-2,3.749182522E-1,1.756388903E0
2.015055901E0,-4.871646687E-2,4.433351159E-1,1.774714947E0
2.017166682E0,-5.115992576E-2,5.117519498E-1,1.793040872E0
2.019277463E0,-5.238165334E-2,5.740602016E-1,1.810145020E0
2.021388244E0,-5.849030241E-2,6.314814687E-1,1.826027513E0
2.023499026E0,-6.337722391E-2,6.852375865E-1,1.841910005E0
2.025609807E0,-6.826414168E-2,7.353284955E-1,1.855349064E0
2.027720588E0,-6.948586553E-2,7.854194045E-1,1.866344571E0
2.029831369E0,-6.093376130E-2,8.416189551E-1,1.874896765E0
2.031942151E0,-4.749473557E-2,9.075923562E-1,1.876118422E0
2.034052932E0,-3.283398226E-2,9.796743989E-1,1.878561854E0
2.036163713E0,-1.817322709E-2,1.046869516E0,1.877340198E0
2.038274494E0,-7.177661173E-3,1.104290843E0,1.873674989E0
2.040385276E0,-2.290742937E-3,1.148273110E0,1.867566347E0
2.042496057E0,-8.399390616E-3,1.172707677E0,1.860235929E0
2.044606786E0,-1.695149764E-2,1.184924960E0,1.851683855E0
2.046717567E0,-3.039052337E-2,1.184924960E0,1.837023139E0
2.048828348E0,-4.749473557E-2,1.178816319E0,1.819918871E0
2.050939130E0,-5.971203372E-2,1.169042468E0,1.800371170E0
2.053049911E0,-7.315105945E-2,1.158046961E0,1.778380036E0
2.055160692E0,-8.414662629E-2,1.142164469E0,1.753945470E0
2.057271473E0,-9.392046183E-2,1.127503633E0,1.728289127E0
2.059382255E0,-1.012508348E-1,1.110399485E0,1.700189352E0
2.061493036E0,-1.085812151E-1,1.092073560E0,1.669646144E0
2.063603817E0,-1.098029464E-1,1.071304083E0,1.637881160E0
2.065714598E0,-1.110246703E-1,1.048091292E0,1.603672743E0
2.067825380E0,-1.122464016E-1,1.016326308E0,1.569464326E0
2.069936161E0,-1.159115955E-1,9.845613241E-1,1.532812476E0
2.072046942E0,-1.134681329E-1,9.527963400E-1,1.496160507E0
2.074157723E0,-1.171333194E-1,9.161444306E-1,1.458287001E0
2.076268505E0,-1.159115955E-1,8.758273721E-1,1.419191599E0
2.078379286E0,-1.171333194E-1,8.379537463E-1,1.377652764E0
2.080490067E0,-1.171333194E-1,8.049670458E-1,1.337335706E0
2.082600848E0,-1.183550507E-1,7.756455541E-1,1.297018647E0
2.084711630E0,-1.207985133E-1,7.524327040E-1,1.256701589E0
2.086822411E0,-1.220202371E-1,7.328850031E-1,1.216384530E0
2.088933192E0,-1.256854236E-1,7.206677198E-1,1.177289128E0
2.091043973E0,-1.244636998E-1,7.108938694E-1,1.138193846E0
2.093154703E0,-1.256854236E-1,7.084504366E-1,1.102763653E0
2.095265484E0,-1.269071549E-1,7.072287202E-1,1.064890027E0
2.097376265E0,-1.269071549E-1,7.157807946E-1,1.029459834E0
2.099487046E0,-1.232419685E-1,7.279980779E-1,9.952514172E-1
2.101597828E0,-1.171333194E-1,7.499892116E-1,9.634864926E-1
2.103708609E0,-1.098029464E-1,7.756455541E-1,9.304997921E-1
2.105819390E0,-1.024725661E-1,8.037453294E-1,8.987348080E-1
2.107930171E0,-9.147699922E-2,8.403972387E-1,8.694133162E-1
2.110040953E0,-8.048143238E-2,8.782708645E-1,8.425352573E-1
2.112151734E0,-7.315105945E-2,9.222530723E-1,8.144354820E-1
2.114262515E0,-6.704241037E-2,9.662353396E-1,7.875574231E-1
2.116373296E0,-5.971203372E-2,1.013882875E0,7.619010806E-1
2.118484078E0,-5.482511222E-2,1.056643367E0,7.362447977E-1
2.120594859E0,-5.115992576E-2,1.096960425E0,7.130318880E-1
2.122705640E0,-4.871646687E-2,1.133612275E0,6.849321127E-1
2.124816421E0,-4.871646687E-2,1.166599035E0,6.629409790E-1
2.126927203E0,-4.627300799E-2,1.192255378E0,6.372846961E-1
2.129037984E0,-4.382954910E-2,1.214246511E0,6.128500700E-1
2.131148765E0,-4.382954910E-2,1.231350660E0,5.884155035E-1
2.133259494E0,-4.138609022E-2,1.241124511E0,5.639809370E-1
2.135370276E0,-3.649916872E-2,1.246011376E0,5.395463109E-1
2.137481057E0,-3.649916872E-2,1.241124511E0,5.138899684E-1
2.139591838E0,-3.527744114E-2,1.227685452E0,4.894554019E-1
2.141702619E0,-3.283398226E-2,1.211802959E0,4.625773430E-1
2.143813401E0,-3.283398226E-2,1.187368393E0,4.369210303E-1
2.145924182E0,-3.283398226E-2,1.159268618E0,4.100429714E-1
2.148034963E0,-3.283398226E-2,1.122616768E0,3.843866587E-1
2.150145744E0,-3.161225095E-2,1.078634501E0,3.562868834E-1
2.152256526E0,-3.161225095E-2,1.028543591E0,3.294088244E-1
2.154367307E0,-3.405570984E-2,9.699005485E-1,3.013090491E-1
2.156478088E0,-2.916879393E-2,9.027054310E-1,2.707658112E-1
2.158588869E0,-2.550360374E-2,8.318451047E-1,2.426660359E-1
2.160699651E0,-2.550360374E-2,7.512109876E-1,2.133445293E-1
2.162810432E0,-2.061668597E-2,6.681333780E-1,1.815795600E-1
2.164921161E0,-1.450803876E-2,5.801688433E-1,1.510363221E-1
2.167031994E0,-8.399390616E-3,4.860956371E-1,1.192713454E-1
2.169142776E0,-1.069013379E-3,3.920224607E-1,8.628465235E-2
2.171253557E0,6.261364091E-3,3.003927469E-1,5.207622424E-2
2.173364338E0,1.359174121E-2,2.075413018E-1,2.031125315E-2
2.175475119E0,1.847865991E-2,1.159115955E-1,-1.389717404E-2
2.177585901E0,2.458730713E-2,3.039052337E-2,-4.932733253E-2
2.179696682E0,2.825249545E-2,-4.413498193E-2,-8.353576064E-2
2.181807463E0,3.680460155E-2,-1.186604798E-1,-1.165224537E-1
2.183918244E0,4.291325063E-2,-1.882990748E-1,-1.507308781E-1
2.186028973E0,4.902189970E-2,-2.554942071E-1,-1.873827726E-1
2.188139755E0,5.513054505E-2,-3.190241456E-1,-2.228129357E-1
2.190250588E0,6.123919412E-2,-3.813323379E-1,-2.606865466E-1
2.192361317E0,6.856957078E-2,-4.399753511E-1,-2.961167097E-1
2.194472098E0,7.345648855E-2,-4.998401105E-1,-3.327685893E-1
2.196582880E0,8.323032409E-2,-5.597048402E-1,-3.706422150E-1
2.198693661E0,9.178243577E-2,-6.134609580E-1,-4.085158110E-1
2.200804442E0,1.027780026E-1,-6.537780166E-1,-4.439459741E-1
2.202915223E0,1.125518382E-1,-6.782126427E-1,-4.781544209E-1
2.205026005E0,1.259908676E-1,-6.757691503E-1,-5.148062706E-1
2.207136786E0,1.394298822E-1,-6.549997330E-1,-5.490147471E-1
2.209247567E0,1.479819864E-1,-6.305651665E-1,-5.856665969E-1
2.211358348E0,1.528689116E-1,-5.975784659E-1,-6.223185062E-1
2.213469130E0,1.492037177E-1,-5.609265566E-1,-6.601921320E-1
2.215579911E0,1.455385387E-1,-5.218312144E-1,-6.980656981E-1
2.217690692E0,1.406516135E-1,-4.802924395E-1,-7.371610999E-1
2.219801473E0,1.333212405E-1,-4.424188137E-1,-7.774781585E-1
2.221912255E0,1.284343153E-1,-4.008800089E-1,-8.165735006E-1
2.224023036E0,1.259908676E-1,-3.581194878E-1,-8.568905592E-1
2.226133817E0,1.272125840E-1,-3.165806830E-1,-8.947641850E-1
2.228244598E0,1.345429718E-1,-2.713766694E-1,-9.326378107E-1
2.230355380E0,1.443168074E-1,-2.200640440E-1,-9.705114365E-1
2.232466161E0,1.589775532E-1,-1.663079411E-1,-1.004719853E0
2.234576890E0,1.797469556E-1,-1.101083755E-1,-1.037706494E0
2.236687723E0,2.029598206E-1,-4.780016840E-2,-1.069471478E0
2.238798453E0,2.261726856E-1,1.939495653E-2,-1.100014806E0
2.240909234E0,2.469420880E-1,9.269873053E-2,-1.129336238E0
2.243020015E0,2.677114904E-1,1.745546162E-1,-1.154992580E0
2.245130796E0,2.860374451E-1,2.600756884E-1,-1.183092356E0
2.247241578E0,3.019199073E-1,3.553705812E-1,-1.207526922E0
2.249352359E0,3.153589368E-1,4.506655037E-1,-1.230739832E0
2.251463140E0,3.226893246E-1,5.532907844E-1,-1.256396174E0
2.253573921E0,3.275762498E-1,6.522508860E-1,-1.280830741E0
2.255684703E0,3.312414289E-1,7.463240623E-1,-1.300378442E0
2.257795484E0,3.336848915E-1,8.367320299E-1,-1.310152292E0
2.259906265E0,3.410152495E-1,9.124792814E-1,-1.307708740E0
2.262017046E0,3.507890999E-1,9.613484740E-1,-1.290604591E0
2.264127828E0,3.630063832E-1,9.808961153E-1,-1.264948249E0
2.266238609E0,3.788888752E-1,9.674571157E-1,-1.228296399E0
2.268349390E0,3.911061883E-1,9.210313559E-1,-1.183092356E0
2.270460171E0,3.984365463E-1,8.562797308E-1,-1.131779671E0
2.272570953E0,3.959930837E-1,7.719803452E-1,-1.073136687E0
2.274681682E0,3.801106215E-1,6.827940941E-1,-1.010828495E0
2.276792463E0,3.495673835E-1,5.923861265E-1,-9.472985864E-1
2.278903244E0,3.092502952E-1,4.958694875E-1,-8.788816929E-1
2.281014026E0,2.616028488E-1,4.005745649E-1,-8.080213666E-1
2.283124807E0,2.041815519E-1,3.065013885E-1,-7.371610999E-1
2.285235588E0,1.504254490E-1,2.112064958E-1,-6.626355648E-1
2.287346369E0,9.544762224E-2,1.146898642E-1,-5.868883133E-1
2.289457151E0,4.413498193E-2,1.817322709E-2,-5.086976290E-1
2.291567932E0,1.527161949E-4,-7.834340632E-2,-4.280634820E-1
2.293678713E0,-3.405570984E-2,-1.675296724E-1,-3.474293351E-1
2.295789494E0,-5.849030241E-2,-2.506072819E-1,-2.631300092E-1
2.297900276E0,-7.437278330E-2,-3.287979662E-1,-1.763872057E-1
2.300011057E0,-8.170316368E-2,-3.972148299E-1,-8.842267841E-2
2.302121838E0,-8.292489499E-2,-4.521926641E-1,7.635809598E-4
2.304232619E0,-8.414662629E-2,-4.998401105E-1,8.750637621E-2
2.306343401E0,-8.170316368E-2,-5.340485573E-1,1.742491722E-1
2.308454182E0,-8.048143238E-2,-5.609265566E-1,2.573267817E-1
2.310564963E0,-8.292489499E-2,-5.755873322E-1,3.367392123E-1
2.312675744E0,-9.025526792E-2,-5.755873322E-1,4.124864340E-1
2.314786526E0,-1.000291109E-1,-5.633700490E-1,4.821250141E-1
2.316897307E0,-1.110246703E-1,-5.413789153E-1,5.456549525E-1
2.319008088E0,-1.269071549E-1,-5.169443488E-1,6.055197120E-1
2.321118869E0,-1.501200199E-1,-4.900662601E-1,6.604975462E-1
2.323229651E0,-1.721111536E-1,-4.644099474E-1,7.105884552E-1
2.325340432E0,-2.002109289E-1,-4.436405599E-1,7.582359314E-1
2.327451161E0,-2.270889878E-1,-4.289797843E-1,8.009964228E-1
2.329561942E0,-2.539670467E-1,-4.192059636E-1,8.400917649E-1
2.331672723E0,-2.747364342E-1,-4.204276800E-1,8.755219579E-1
2.333783505E0,-2.918406427E-1,-4.289797843E-1,9.109520912E-1
2.335894286E0,-3.028362095E-1,-4.363101721E-1,9.390518665E-1
2.338005067E0,-3.065013885E-1,-4.460839927E-1,9.671516418E-1
2.340115848E0,-3.065013885E-1,-4.509709179E-1,9.903645515E-1
2.342226630E0,-3.003927469E-1,-4.509709179E-1,1.013577342E0
2.344337411E0,-2.930623889E-1,-4.473057389E-1,1.031903386E0
2.346448192E0,-2.820668221E-1,-4.399753511E-1,1.049007535E0
2.348558973E0,-2.698495090E-1,-4.228711426E-1,1.063668251E0
2.350669755E0,-2.637408674E-1,-3.923279047E-1,1.073442101E0
2.352780536E0,-2.588539422E-1,-3.495673835E-1,1.077107310E0
2.354891317E0,-2.551887631E-1,-2.958112657E-1,1.074663877E0
2.357002098E0,-2.551887631E-1,-2.273944169E-1,1.069776893E0
2.359112880E0,-2.564104795E-1,-1.467602700E-1,1.060003161E0
2.361223661E0,-2.600756884E-1,-6.612611562E-2,1.045342326E0
2.363334442E0,-2.637408674E-1,1.206457894E-2,1.029459834E0
2.365445223E0,-2.698495090E-1,7.925970852E-2,1.009912252E0
2.367556005E0,-2.747364342E-1,1.403461844E-1,9.891427755E-1
2.369666734E0,-2.771798968E-1,1.941022873E-1,9.683734179E-1
2.371777515E0,-2.735147178E-1,2.429714650E-1,9.451605082E-1
2.373888348E0,-2.686277926E-1,2.857320011E-1,9.207259417E-1
2.375999078E0,-2.612974048E-1,3.187187016E-1,8.975130916E-1
2.378109859E0,-2.478583902E-1,3.492619395E-1,8.755219579E-1
2.380220640E0,-2.307541668E-1,3.761399984E-1,8.523091078E-1
2.382331421E0,-2.112064958E-1,4.005745649E-1,8.327614069E-1
2.384442203E0,-1.941022873E-1,4.225656986E-1,8.144354820E-1
2.386552984E0,-1.745546162E-1,4.396699369E-1,7.948877811E-1
2.388663765E0,-1.586721241E-1,4.506655037E-1,7.765618563E-1
2.390774546E0,-1.440113783E-1,4.616610706E-1,7.594576478E-1
2.392885328E0,-1.354592592E-1,4.628827870E-1,7.423534393E-1
2.394996109E0,-1.317940801E-1,4.665479660E-1,7.240274549E-1
2.397106890E0,-1.281288862E-1,4.592176080E-1,7.081450224E-1
2.399217671E0,-1.293506175E-1,4.470002949E-1,6.898190379E-1
2.401328453E0,-1.354592592E-1,4.286743701E-1,6.702713966E-1
2.403439234E0,-1.415679157E-1,4.054614902E-1,6.519454122E-1
2.405550015E0,-1.476765573E-1,3.736965358E-1,6.348412037E-1
2.407660796E0,-1.525634825E-1,3.346011937E-1,6.152935624E-1
2.409771578E0,-1.574503928E-1,2.869537175E-1,5.969675779E-1
2.411882359E0,-1.611155868E-1,2.319758981E-1,5.798633695E-1
2.413993088E0,-1.611155868E-1,1.696676910E-1,5.627591610E-1
2.416103869E0,-1.598938555E-1,1.061377525E-1,5.456549525E-1
2.418214703E0,-1.562286615E-1,4.138609022E-2,5.309942365E-1
2.420325432E0,-1.488982886E-1,-2.458730713E-2,5.163334608E-1
2.422436213E0,-1.415679157E-1,-9.056070447E-2,5.016726851E-1
2.424546994E0,-1.330158114E-1,-1.540906429E-1,4.894554019E-1
2.426657776E0,-1.256854236E-1,-2.163988501E-1,4.772381186E-1
2.428768557E0,-1.171333194E-1,-2.738201320E-1,4.662425518E-1
2.430879338E0,-1.110246703E-1,-3.275762498E-1,4.552469850E-1
2.432990119E0,-1.073594838E-1,-3.813323379E-1,4.442514181E-1
2.435100901E0,-1.036942974E-1,-4.338667095E-1,4.356993139E-1
2.437211682E0,-1.036942974E-1,-4.815141559E-1,4.247037470E-1
2.439322463E0,-1.049160287E-1,-5.279398561E-1,4.149298966E-1
2.441433244E0,-1.049160287E-1,-5.731438994E-1,4.075995386E-1
2.443544026E0,-1.098029464E-1,-6.134609580E-1,4.002691507E-1
2.445654807E0,-1.122464016E-1,-6.513345838E-1,3.904953003E-1
2.447765588E0,-1.159115955E-1,-6.867647171E-1,3.831649423E-1
2.449876369E0,-1.207985133E-1,-7.160862088E-1,3.758345544E-1
2.451987151E0,-1.207985133E-1,-7.392991185E-1,3.733910918E-1
2.454097932E0,-1.220202371E-1,-7.551816106E-1,3.697259128E-1
2.456208713E0,-1.220202371E-1,-7.673988938E-1,3.648389876E-1
2.458319494E0,-1.195767820E-1,-7.722858191E-1,3.636172712E-1
2.460430276E0,-1.146898642E-1,-7.710640430E-1,3.611738086E-1
2.462540953E0,-1.122464016E-1,-7.661771774E-1,3.599520624E-1
2.464651786E0,-1.085812151E-1,-7.588467598E-1,3.599520624E-1
2.466762567E0,-1.024725661E-1,-7.454077601E-1,3.599520624E-1
2.468873348E0,-1.000291109E-1,-7.307469845E-1,3.599520624E-1
2.470984130E0,-9.514218569E-2,-7.111993432E-1,3.611738086E-1
2.473094911E0,-9.392046183E-2,-6.879864335E-1,3.599520624E-1
2.475205692E0,-9.392046183E-2,-6.623301506E-1,3.623955250E-1
2.477316473E0,-9.514218569E-2,-6.366738081E-1,3.611738086E-1
2.479427255E0,-9.392046183E-2,-6.061306000E-1,3.611738086E-1
2.481538036E0,-9.636391699E-2,-5.719221234E-1,3.599520624E-1
2.483648817E0,-1.000291109E-1,-5.389354229E-1,3.611738086E-1
2.485759598E0,-1.036942974E-1,-5.010618567E-1,3.599520624E-1
2.487870380E0,-1.085812151E-1,-4.619664848E-1,3.611738086E-1
2.489981161E0,-1.098029464E-1,-4.204276800E-1,3.611738086E-1
2.492091942E0,-1.122464016E-1,-3.788888752E-1,3.636172712E-1
2.494202723E0,-1.134681329E-1,-3.373500705E-1,3.648389876E-1
2.496313505E0,-1.110246703E-1,-2.982547283E-1,3.672824502E-1
2.498424286E0,-1.098029464E-1,-2.616028488E-1,3.685041666E-1
2.500535015E0,-1.049160287E-1,-2.273944169E-1,3.721693754E-1
2.502645848E0,-1.024725661E-1,-1.919642538E-1,3.746128380E-1
2.504756578E0,-9.514218569E-2,-1.614210159E-1,3.794997334E-1
2.506867359E0,-8.903354406E-2,-1.333212405E-1,3.831649423E-1
2.508978192E0,-8.170316368E-2,-1.039997265E-1,3.868301213E-1
2.511088921E0,-7.559451461E-2,-7.834340632E-2,3.941605091E-1
2.513199703E0,-6.948586553E-2,-5.635227636E-2,4.002691507E-1
2.515310484E0,-6.582067907E-2,-3.558287397E-2,4.063777924E-1
2.517421265E0,-6.337722391E-2,-1.603520103E-2,4.124864340E-1
2.519532046E0,-6.337722391E-2,1.069013379E-3,4.185950756E-1
2.521642828E0,-6.582067907E-2,1.695149764E-2,4.259254634E-1
2.523753609E0,-6.704241037E-2,3.161225095E-2,4.320341051E-1
2.525864390E0,-6.948586553E-2,4.627300799E-2,4.393644929E-1
2.527975171E0,-7.437278330E-2,5.482511222E-2,4.466948807E-1
2.530085953E0,-7.803797722E-2,6.459894776E-2,4.491383433E-1
2.532196734E0,-8.292489499E-2,6.826414168E-2,4.564687014E-1
2.534307515E0,-8.536835015E-2,6.948586553E-2,4.613556266E-1
2.536418296E0,-8.781181276E-2,6.826414168E-2,4.650208056E-1
2.538529026E0,-8.781181276E-2,6.459894776E-2,4.674642682E-1
2.540639859E0,-9.147699922E-2,5.849030241E-2,4.711294472E-1
2.542750640E0,-9.025526792E-2,4.871646687E-2,4.735729098E-1
2.544861421E0,-9.269873053E-2,3.772090003E-2,4.772381186E-1
2.546972151E0,-9.269873053E-2,2.428187430E-2,4.809032977E-1
2.549082984E0,-9.392046183E-2,1.084284950E-2,4.821250141E-1
2.551193765E0,-9.269873053E-2,-3.817904973E-3,4.845684767E-1
2.553304546E0,-9.147699922E-2,-1.847865991E-2,4.857902229E-1
2.555415276E0,-9.269873053E-2,-3.558287397E-2,4.870119393E-1
2.557526057E0,-9.269873053E-2,-4.902189970E-2,4.870119393E-1
2.559636838E0,-9.269873053E-2,-6.001746282E-2,4.894554019E-1
2.561747619E0,-9.514218569E-2,-7.467821985E-2,4.918988645E-1
2.563858401E0,-9.636391699E-2,-8.689551800E-2,4.931205809E-1
2.565969182E0,-9.636391699E-2,-1.003345400E-1,4.967857897E-1
2.568079963E0,-9.880737960E-2,-1.149952933E-1,4.980075061E-1
2.570190744E0,-1.012508348E-1,-1.296560466E-1,5.004509687E-1
2.572301526E0,-1.012508348E-1,-1.455385387E-1,5.016726851E-1
2.574412307E0,-1.012508348E-1,-1.614210159E-1,5.065596104E-1
2.576523088E0,-1.024725661E-1,-1.809686869E-1,5.102248192E-1
2.578633869E0,-1.061377525E-1,-1.980729103E-1,5.138899684E-1
2.580744651E0,-1.049160287E-1,-2.139553875E-1,5.187768936E-1
2.582855432E0,-1.061377525E-1,-2.286161482E-1,5.224421024E-1
2.584966213E0,-1.073594838E-1,-2.408334464E-1,5.273290277E-1
2.587076994E0,-1.073594838E-1,-2.493855506E-1,5.322159529E-1
2.589187776E0,-1.085812151E-1,-2.530507445E-1,5.358811021E-1
2.591298557E0,-1.122464016E-1,-2.567159235E-1,5.419898033E-1
2.593409338E0,-1.110246703E-1,-2.554942071E-1,5.480984449E-1
2.595520119E0,-1.134681329E-1,-2.493855506E-1,5.542070866E-1
2.597630901E0,-1.146898642E-1,-2.432768941E-1,5.590940118E-1
2.599741630E0,-1.146898642E-1,-2.335030586E-1,5.639809370E-1
2.601852411E0,-1.183550507E-1,-2.237292230E-1,5.700895786E-1
2.603963192E0,-1.183550507E-1,-2.151771188E-1,5.761982203E-1
2.606073973E0,-1.207985133E-1,-2.041815519E-1,5.823068619E-1
2.608184755E0,-1.232419685E-1,-1.968511790E-1,5.871937871E-1
2.610295536E0,-1.220202371E-1,-1.870773435E-1,5.908589363E-1
2.612406317E0,-1.244636998E-1,-1.809686869E-1,5.945241451E-1
2.614517098E0,-1.244636998E-1,-1.724165827E-1,5.981893539E-1
2.616627880E0,-1.244636998E-1,-1.675296724E-1,6.055197120E-1
2.618738661E0,-1.232419685E-1,-1.614210159E-1,6.079631448E-1
2.620849442E0,-1.232419685E-1,-1.565341055E-1,6.116283536E-1
2.622960171E0,-1.244636998E-1,-1.504254490E-1,6.165152788E-1
2.625071005E0,-1.256854236E-1,-1.443168074E-1,6.177369952E-1
2.627181786E0,-1.207985133E-1,-1.418733448E-1,6.201804876E-1
2.629292567E0,-1.207985133E-1,-1.369864196E-1,6.226239204E-1
2.631403348E0,-1.207985133E-1,-1.308777779E-1,6.250674129E-1
2.633514130E0,-1.195767820E-1,-1.284343153E-1,6.275108457E-1
2.635624911E0,-1.183550507E-1,-1.247691289E-1,6.262891293E-1
2.637735692E0,-1.171333194E-1,-1.235474050E-1,6.275108457E-1
2.639846473E0,-1.159115955E-1,-1.247691289E-1,6.287325621E-1
2.641957203E0,-1.146898642E-1,-1.308777779E-1,6.262891293E-1
2.644067984E0,-1.171333194E-1,-1.333212405E-1,6.262891293E-1
2.646178817E0,-1.159115955E-1,-1.394298822E-1,6.250674129E-1
2.648289546E0,-1.134681329E-1,-1.455385387E-1,6.238456368E-1
2.650400328E0,-1.159115955E-1,-1.553123742E-1,6.238456368E-1
2.652511109E0,-1.159115955E-1,-1.614210159E-1,6.226239204E-1
2.654621890E0,-1.146898642E-1,-1.675296724E-1,6.226239204E-1
2.656732671E0,-1.183550507E-1,-1.760817766E-1,6.201804876E-1
2.658843453E0,-1.159115955E-1,-1.846338809E-1,6.189587116E-1
2.660954234E0,-1.146898642E-1,-1.931859851E-1,6.189587116E-1
2.663065015E0,-1.159115955E-1,-2.017380893E-1,6.177369952E-1
2.665175796E0,-1.171333194E-1,-2.102901936E-1,6.165152788E-1
2.667286578E0,-1.171333194E-1,-2.188423127E-1,6.177369952E-1
2.669397359E0,-1.207985133E-1,-2.261726856E-1,6.177369952E-1
2.671508140E0,-1.195767820E-1,-2.335030586E-1,6.177369952E-1
2.673618921E0,-1.195767820E-1,-2.420551628E-1,6.152935624E-1
2.675729703E0,-1.207985133E-1,-2.481638193E-1,6.165152788E-1
2.677840484E0,-1.207985133E-1,-2.542724609E-1,6.165152788E-1
2.679951265E0,-1.220202371E-1,-2.616028488E-1,6.152935624E-1
2.682062046E0,-1.207985133E-1,-2.664897740E-1,6.165152788E-1
2.684172776E0,-1.220202371E-1,-2.725984156E-1,6.165152788E-1
2.686283609E0,-1.195767820E-1,-2.762635946E-1,6.140718460E-1
2.688394338E0,-1.220202371E-1,-2.823722363E-1,6.128500700E-1
2.690505119E0,-1.195767820E-1,-2.872591615E-1,6.140718460E-1
2.692615901E0,-1.207985133E-1,-2.897026241E-1,6.140718460E-1
2.694726682E0,-1.195767820E-1,-2.909243405E-1,6.140718460E-1
2.696837463E0,-1.207985133E-1,-2.982547283E-1,6.140718460E-1
2.698948244E0,-1.220202371E-1,-3.006981909E-1,6.128500700E-1
2.701059026E0,-1.244636998E-1,-3.019199073E-1,6.128500700E-1
2.703169807E0,-1.220202371E-1,-3.043633699E-1,6.128500700E-1
2.705280588E0,-1.232419685E-1,-3.055851161E-1,6.140718460E-1
2.707391369E0,-1.220202371E-1,-3.043633699E-1,6.128500700E-1
2.709502151E0,-1.232419685E-1,-3.031416535E-1,6.152935624E-1
2.711612932E0,-1.256854236E-1,-3.068068326E-1,6.165152788E-1
2.713723713E0,-1.281288862E-1,-3.092502952E-1,6.177369952E-1
2.715834494E0,-1.281288862E-1,-3.104720116E-1,6.189587116E-1
2.717945276E0,-1.281288862E-1,-3.116937578E-1,6.214022040E-1
2.720056057E0,-1.293506175E-1,-3.129154742E-1,6.226239204E-1
2.722166838E0,-1.293506175E-1,-3.153589368E-1,6.238456368E-1
2.724277619E0,-1.305723488E-1,-3.178023994E-1,6.262891293E-1
2.726388348E0,-1.293506175E-1,-3.190241456E-1,6.287325621E-1
2.728499130E0,-1.281288862E-1,-3.202458620E-1,6.287325621E-1
2.730609911E0,-1.281288862E-1,-3.214675784E-1,6.299542785E-1
2.732720692E0,-1.256854236E-1,-3.190241456E-1,6.336194873E-1
2.734831473E0,-1.244636998E-1,-3.165806830E-1,6.348412037E-1
2.736942255E0,-1.220202371E-1,-3.129154742E-1,6.360629797E-1
2.739053036E0,-1.207985133E-1,-3.055851161E-1,6.360629797E-1
2.741163817E0,-1.183550507E-1,-2.994764447E-1,6.385064125E-1
2.743274598E0,-1.183550507E-1,-2.958112657E-1,6.385064125E-1
2.745385380E0,-1.122464016E-1,-2.884808779E-1,6.385064125E-1
2.747496161E0,-1.146898642E-1,-2.835939825E-1,6.409498453E-1
2.749606942E0,-1.122464016E-1,-2.787070572E-1,6.385064125E-1
2.751717723E0,-1.098029464E-1,-2.725984156E-1,6.397281289E-1
2.753828505E0,-1.085812151E-1,-2.689332068E-1,6.372846961E-1
2.755939286E0,-1.085812151E-1,-2.652680278E-1,6.348412037E-1
2.758050067E0,-1.073594838E-1,-2.628245652E-1,6.336194873E-1
2.760160848E0,-1.073594838E-1,-2.640463114E-1,6.311760545E-1
2.762271630E0,-1.085812151E-1,-2.616028488E-1,6.275108457E-1
2.764382411E0,-1.098029464E-1,-2.628245652E-1,6.250674129E-1
2.766493192E0,-1.085812151E-1,-2.652680278E-1,6.214022040E-1
2.768603973E0,-1.098029464E-1,-2.664897740E-1,6.177369952E-1
2.770714755E0,-1.085812151E-1,-2.664897740E-1,6.152935624E-1
2.772825484E0,-1.085812151E-1,-2.677114904E-1,6.104066372E-1
2.774936265E0,-1.098029464E-1,-2.677114904E-1,6.055197120E-1
2.777047046E0,-1.085812151E-1,-2.652680278E-1,6.006327868E-1
2.779157828E0,-1.073594838E-1,-2.652680278E-1,5.969675779E-1
2.781268609E0,-1.073594838E-1,-2.652680278E-1,5.920807123E-1
2.783379390E0,-1.073594838E-1,-2.628245652E-1,5.884155035E-1
2.785490119E0,-1.061377525E-1,-2.616028488E-1,5.823068619E-1
2.787600953E0,-1.061377525E-1,-2.603811026E-1,5.774199367E-1
2.789711734E0,-1.073594838E-1,-2.579376400E-1,5.713112950E-1
2.791822515E0,-1.085812151E-1,-2.591593862E-1,5.664243698E-1
2.793933296E0,-1.098029464E-1,-2.603811026E-1,5.590940118E-1
2.796044078E0,-1.073594838E-1,-2.603811026E-1,5.529853702E-1
2.798154859E0,-1.085812151E-1,-2.603811026E-1,5.480984449E-1
2.800265640E0,-1.073594838E-1,-2.616028488E-1,5.419898033E-1
2.802376421E0,-1.061377525E-1,-2.628245652E-1,5.346593857E-1
2.804487203E0,-1.049160287E-1,-2.652680278E-1,5.285507441E-1
2.806597984E0,-1.012508348E-1,-2.616028488E-1,5.212203860E-1
2.808708765E0,-9.880737960E-2,-2.628245652E-1,5.175551772E-1
2.810819546E0,-9.636391699E-2,-2.603811026E-1,5.090031028E-1
2.812930328E0,-9.392046183E-2,-2.567159235E-1,5.016726851E-1
2.815041057E0,-9.025526792E-2,-2.542724609E-1,4.955640435E-1
2.817151838E0,-8.659008145E-2,-2.493855506E-1,4.882336855E-1
2.819262619E0,-8.292489499E-2,-2.432768941E-1,4.821250141E-1
2.821373401E0,-8.048143238E-2,-2.371682525E-1,4.760163724E-1
2.823484182E0,-8.048143238E-2,-2.286161482E-1,4.674642682E-1
2.825594963E0,-7.559451461E-2,-2.176205814E-1,4.613556266E-1
2.827705744E0,-7.315105945E-2,-2.029598206E-1,4.564687014E-1
2.829816526E0,-7.315105945E-2,-1.882990748E-1,4.491383433E-1
2.831927307E0,-6.826414168E-2,-1.699731201E-1,4.466948807E-1
2.834038088E0,-6.704241037E-2,-1.504254490E-1,4.405862093E-1
2.836148869E0,-6.582067907E-2,-1.296560466E-1,4.393644929E-1
2.838259651E0,-6.704241037E-2,-1.015562713E-1,4.393644929E-1
2.840370432E0,-6.459894776E-2,-7.345648855E-2,4.393644929E-1
2.842481213E0,-6.215549260E-2,-4.657844082E-2,4.393644929E-1
2.844591994E0,-6.093376130E-2,-2.092211880E-2,4.393644929E-1
2.846702776E0,-5.726857483E-2,3.512472380E-3,4.381427765E-1
2.848813557E0,-5.360338464E-2,2.428187430E-2,4.381427765E-1
2.850924338E0,-4.993819445E-2,4.627300799E-2,4.381427765E-1
2.853035119E0,-4.627300799E-2,6.826414168E-2,4.369210303E-1
2.855145901E0,-4.260781780E-2,8.903354406E-2,4.369210303E-1
2.857256682E0,-3.649916872E-2,1.049160287E-1,4.369210303E-1
2.859367463E0,-3.649916872E-2,1.232419685E-1,4.369210303E-1
2.861478192E0,-3.405570984E-2,1.415679157E-1,4.344775677E-1
2.863588973E0,-3.161225095E-2,1.550069451E-1,4.356993139E-1
2.865699755E0,-3.283398226E-2,1.635590494E-1,4.369210303E-1
2.867810484E0,-3.283398226E-2,1.782197952E-1,4.344775677E-1
2.869921317E0,-3.283398226E-2,1.843284518E-1,4.332558513E-1
2.872032098E0,-3.405570984E-2,1.892153621E-1,4.332558513E-1
2.874142880E0,-3.772090003E-2,1.928805560E-1,4.308123887E-1
2.876253661E0,-3.894263133E-2,1.916588247E-1,4.295906425E-1
2.878364442E0,-4.260781780E-2,1.904370934E-1,4.259254634E-1
2.880475223E0,-4.505127668E-2,1.879936308E-1,4.247037470E-1
2.882586005E0,-4.505127668E-2,1.769980639E-1,4.222602844E-1
2.884696786E0,-4.505127668E-2,1.660024971E-1,4.185950756E-1
2.886807567E0,-4.505127668E-2,1.550069451E-1,4.161516428E-1
2.888918348E0,-4.627300799E-2,1.415679157E-1,4.137081802E-1
2.891029130E0,-4.382954910E-2,1.269071549E-1,4.124864340E-1
2.893139911E0,-4.260781780E-2,1.110246703E-1,4.088212550E-1
2.895250692E0,-4.260781780E-2,9.514218569E-2,4.051560760E-1
2.897361473E0,-4.260781780E-2,8.292489499E-2,4.027126133E-1
2.899472255E0,-4.260781780E-2,6.582067907E-2,3.990474045E-1
2.901583036E0,-4.260781780E-2,5.115992576E-2,3.953822255E-1
2.903693765E0,-4.382954910E-2,3.894263133E-2,3.929387629E-1
2.905804546E0,-4.382954910E-2,2.672533318E-2,3.880518377E-1
2.907915328E0,-4.505127668E-2,1.450803876E-2,3.831649423E-1
2.910026109E0,-4.627300799E-2,5.955931731E-3,3.807214797E-1
2.912136890E0,-4.871646687E-2,-6.261364091E-3,3.770562708E-1
2.914247671E0,-4.993819445E-2,-1.359174121E-2,3.709476292E-1
2.916358453E0,-4.993819445E-2,-2.092211880E-2,3.697259128E-1
2.918469234E0,-5.238165334E-2,-2.703076601E-2,3.648389876E-1
2.920580015E0,-5.115992576E-2,-3.313941509E-2,3.587303460E-1
2.922690796E0,-4.993819445E-2,-3.802633286E-2,3.562868834E-1
2.924801578E0,-5.115992576E-2,-4.169152305E-2,3.501782417E-1
2.926912359E0,-4.993819445E-2,-4.413498193E-2,3.452913165E-1
2.929023140E0,-4.627300799E-2,-4.291325063E-2,3.416261375E-1
2.931133921E0,-4.627300799E-2,-4.291325063E-2,3.355174661E-1
2.933244703E0,-4.505127668E-2,-4.046979174E-2,3.318522871E-1
2.935355484E0,-4.382954910E-2,-3.802633286E-2,3.269653618E-1
2.937466265E0,-4.138609022E-2,-3.191768378E-2,3.208567202E-1
2.939577046E0,-3.772090003E-2,-2.458730713E-2,3.171915412E-1
2.941687828E0,-3.649916872E-2,-1.603520103E-2,3.110828996E-1
2.943798557E0,-3.527744114E-2,-8.704823442E-3,3.061959743E-1
2.945909390E0,-3.283398226E-2,2.290742937E-3,3.000873327E-1
2.948020119E0,-3.039052337E-2,1.450803876E-2,2.939786613E-1
2.950130901E0,-2.916879393E-2,2.794706449E-2,2.903134823E-1
2.952241682E0,-2.794706449E-2,3.894263133E-2,2.854265571E-1
2.954352463E0,-2.550360374E-2,4.993819445E-2,2.793179154E-1
2.956463244E0,-2.672533318E-2,6.337722391E-2,2.719875574E-1
2.958574026E0,-2.550360374E-2,7.681624591E-2,2.671006322E-1
2.960684807E0,-2.306014486E-2,9.025526792E-2,2.609919906E-1
2.962795588E0,-2.428187430E-2,1.024725661E-1,2.548833191E-1
2.964906369E0,-2.306014486E-2,1.122464016E-1,2.487746775E-1
2.967017151E0,-2.061668597E-2,1.207985133E-1,2.438877672E-1
2.969127932E0,-2.183841541E-2,1.305723488E-1,2.390008420E-1
2.971238713E0,-2.183841541E-2,1.391244531E-1,2.328922004E-1
2.973349494E0,-1.939495653E-2,1.452330947E-1,2.280052751E-1
2.975460276E0,-1.939495653E-2,1.513417512E-1,2.218966335E-1
2.977571057E0,-1.817322709E-2,1.550069451E-1,2.157879770E-1
2.979681838E0,-1.817322709E-2,1.550069451E-1,2.109010667E-1
2.981792619E0,-1.695149764E-2,1.574503928E-1,2.060141414E-1
2.983903401E0,-1.695149764E-2,1.574503928E-1,2.011272311E-1
2.986014182E0,-1.572976820E-2,1.550069451E-1,1.974620372E-1
2.988124963E0,-1.572976820E-2,1.537852138E-1,1.925751269E-1
2.990235692E0,-1.328630932E-2,1.513417512E-1,1.864664704E-1
2.992346526E0,-1.572976820E-2,1.464548260E-1,1.828012913E-1
2.994457255E0,-1.328630932E-2,1.427896470E-1,1.779143661E-1
2.996567984E0,-1.328630932E-2,1.379027218E-1,1.730274558E-1
2.998678817E0,-1.328630932E-2,1.330158114E-1,1.693622619E-1
3.000789598E0,-1.328630932E-2,1.232419685E-1,1.632536054E-1
3.002900380E0,-1.450803876E-2,1.146898642E-1,1.608101577E-1
3.005011161E0,-1.328630932E-2,1.049160287E-1,1.547015011E-1
3.007121942E0,-1.450803876E-2,9.269873053E-2,1.485928595E-1
3.009232723E0,-1.450803876E-2,8.048143238E-2,1.449276656E-1
3.011343505E0,-1.450803876E-2,6.826414168E-2,1.412624866E-1
3.013454286E0,-1.450803876E-2,5.604684353E-2,1.351538301E-1
3.015565067E0,-1.572976820E-2,4.505127668E-2,1.314886510E-1
3.017675848E0,-1.695149764E-2,2.916879393E-2,1.290451884E-1
3.019786630E0,-1.939495653E-2,1.695149764E-2,1.253799945E-1
3.021897411E0,-1.939495653E-2,3.512472380E-3,1.229365394E-1
3.024008192E0,-1.939495653E-2,-9.926552884E-3,1.168278903E-1
3.026118973E0,-1.939495653E-2,-2.336557768E-2,1.143844277E-1
3.028229755E0,-1.817322709E-2,-3.436114267E-2,1.119409725E-1
3.030340536E0,-1.817322709E-2,-4.902189970E-2,1.082757786E-1
3.032451317E0,-1.695149764E-2,-5.879573524E-2,1.046105921E-1
3.034562046E0,-1.695149764E-2,-7.223475724E-2,1.033888608E-1
3.036672880E0,-1.572976820E-2,-8.445205539E-2,9.850194305E-2
3.038783609E0,-1.450803876E-2,-9.911280870E-2,9.605848789E-2
3.040894390E0,-1.206457894E-2,-1.088866442E-1,9.361502528E-2
3.043005171E0,-1.206457894E-2,-1.211039424E-1,8.994983882E-2
3.045115953E0,-1.328630932E-2,-1.308777779E-1,8.750637621E-2
3.047226734E0,-1.206457894E-2,-1.418733448E-1,8.384118974E-2
3.049337515E0,-1.328630932E-2,-1.516471803E-1,8.139773458E-2
3.051448296E0,-1.450803876E-2,-1.601992846E-1,7.895427197E-2
3.053559078E0,-1.572976820E-2,-1.687513888E-1,7.773254067E-2
3.055669859E0,-1.817322709E-2,-1.760817766E-1,7.406735420E-2
3.057780640E0,-2.061668597E-2,-1.809686869E-1,7.162389904E-2
3.059891421E0,-2.061668597E-2,-1.858556122E-1,7.040216774E-2
3.062002203E0,-2.183841541E-2,-1.895207912E-1,6.918043643E-2
3.064112984E0,-2.183841541E-2,-1.931859851E-1,6.551524997E-2
3.066223765E0,-2.428187430E-2,-1.907425225E-1,6.429351866E-2
3.068334546E0,-2.428187430E-2,-1.931859851E-1,6.185005978E-2
3.070445328E0,-2.306014486E-2,-1.895207912E-1,6.062832847E-2
3.072556109E0,-2.183841541E-2,-1.870773435E-1,6.062832847E-2
3.074666890E0,-1.939495653E-2,-1.846338809E-1,5.818486959E-2
3.076777619E0,-1.939495653E-2,-1.797469556E-1,5.696314201E-2
3.078888401E0,-1.572976820E-2,-1.760817766E-1,5.451968312E-2
3.080999182E0,-1.450803876E-2,-1.711948514E-1,5.329795182E-2
3.083109963E0,-1.328630932E-2,-1.663079411E-1,5.085449293E-2
3.085220744E0,-1.084284950E-2,-1.626427472E-1,4.841103405E-2
3.087331526E0,-1.084284950E-2,-1.540906429E-1,4.841103405E-2
3.089442307E0,-1.084284950E-2,-1.467602700E-1,4.474584386E-2
3.091553088E0,-1.206457894E-2,-1.394298822E-1,4.230238497E-2
3.093663869E0,-1.084284950E-2,-1.333212405E-1,4.108065739E-2
3.095774651E0,-1.328630932E-2,-1.272125840E-1,3.741546720E-2
3.097885432E0,-1.206457894E-2,-1.211039424E-1,3.619373962E-2
3.099996213E0,-1.328630932E-2,-1.137735620E-1,3.252854943E-2
3.102106994E0,-1.572976820E-2,-1.064431891E-1,3.130681813E-2
3.104217776E0,-1.572976820E-2,-9.911280870E-2,2.886336111E-2
3.106328557E0,-1.450803876E-2,-9.422589093E-2,2.641990222E-2
3.108439286E0,-1.328630932E-2,-8.933897316E-2,2.519817278E-2
3.110550119E0,-1.450803876E-2,-8.445205539E-2,2.397644334E-2
3.112660901E0,-1.328630932E-2,-8.323032409E-2,2.275471389E-2
3.114771682E0,-9.621120058E-3,-7.834340632E-2,2.153298259E-2
3.116882411E0,-9.621120058E-3,-7.589995116E-2,2.031125315E-2
3.118993244E0,-8.399390616E-3,-7.223475724E-2,2.031125315E-2
3.121104026E0,-5.955931731E-3,-7.101303339E-2,1.908952370E-2
3.123214807E0,-3.512472380E-3,-6.734783947E-2,1.786779426E-2
3.125325536E0,-1.069013379E-3,-6.490438432E-2,1.664606482E-2
3.127436317E0,-2.290742937E-3,-5.635227636E-2,1.786779426E-2
3.129547098E0,-1.069013379E-3,-5.390881747E-2,1.664606482E-2
3.131657880E0,1.374445739E-3,-4.780016840E-2,1.542433538E-2
3.133768661E0,-1.069013379E-3,-3.924806044E-2,1.542433538E-2
3.135879442E0,-1.069013379E-3,-3.069595434E-2,1.420260593E-2
3.137990223E0,1.527161949E-4,-2.092211880E-2,1.542433538E-2
3.140101005E0,-1.069013379E-3,-1.114828233E-2,1.298087649E-2
3.142211786E0,-3.512472380E-3,-2.596175298E-3,1.298087649E-2
3.144322567E0,-4.734201822E-3,8.399390616E-3,1.175914705E-2
3.146433348E0,-4.734201822E-3,2.061668597E-2,1.053741761E-2
3.148544130E0,-3.512472380E-3,2.916879393E-2,1.053741761E-2
3.150654911E0,-3.512472380E-3,4.016435891E-2,1.175914705E-2
3.152765692E0,-2.290742937E-3,4.749473557E-2,1.053741761E-2
3.154876473E0,1.527161949E-4,5.604684353E-2,9.315688163E-3
3.156987255E0,2.596175298E-3,6.459894776E-2,8.093958721E-3
3.159098036E0,1.374445739E-3,6.948586553E-2,6.872228812E-3
3.161208765E0,7.483093534E-3,7.437278330E-2,5.650499370E-3
3.163319546E0,8.704823442E-3,7.803797722E-2,5.650499370E-3
3.165430328E0,8.704823442E-3,8.170316368E-2,4.428769462E-3
3.167541109E0,1.114828233E-2,8.536835015E-2,3.207040019E-3
3.169651890E0,1.359174121E-2,8.781181276E-2,1.985310577E-3
3.171762671E0,1.114828233E-2,9.147699922E-2,7.635809598E-4
3.173873453E0,1.237001177E-2,9.392046183E-2,-1.679878100E-3
3.175984234E0,1.359174121E-2,9.392046183E-2,-2.901607659E-3
3.178095015E0,1.237001177E-2,9.514218569E-2,-2.901607659E-3
3.180205796E0,8.704823442E-3,9.636391699E-2,-4.123337101E-3
3.182316578E0,7.483093534E-3,9.636391699E-2,-7.788525894E-3
3.184427359E0,5.039634649E-3,9.392046183E-2,-9.010255337E-3
3.186538140E0,6.261364091E-3,9.025526792E-2,-9.010255337E-3
3.188648921E0,5.039634649E-3,8.781181276E-2,-1.023198478E-2
3.190759703E0,5.039634649E-3,8.170316368E-2,-1.389717404E-2
3.192870484E0,3.817904973E-3,7.559451461E-2,-1.634063199E-2
3.194981265E0,3.817904973E-3,6.704241037E-2,-1.878409274E-2
3.197092046E0,5.039634649E-3,5.849030241E-2,-2.122755162E-2
3.199202828E0,7.483093534E-3,4.871646687E-2,-2.367101051E-2
3.201313609E0,6.261364091E-3,3.649916872E-2,-2.611446939E-2
3.203424390E0,8.704823442E-3,2.550360374E-2,-2.977965772E-2
3.205535171E0,7.483093534E-3,1.695149764E-2,-3.100138716E-2
3.207645901E0,6.261364091E-3,4.734201822E-3,-3.466657549E-2
3.209756682E0,7.483093534E-3,-7.483093534E-3,-3.711003438E-2
3.211867463E0,6.261364091E-3,-1.725693047E-2,-4.077522457E-2
3.213978244E0,7.483093534E-3,-2.580903657E-2,-4.321868345E-2
3.216089026E0,7.483093534E-3,-3.802633286E-2,-4.810560122E-2
3.218199807E0,6.261364091E-3,-4.657844082E-2,-5.054906011E-2
3.220310588E0,3.817904973E-3,-5.635227636E-2,-5.421425030E-2
3.222421369E0,1.374445739E-3,-6.246092543E-2,-5.787943676E-2
3.224532151E0,1.527161949E-4,-7.101303339E-2,-6.276635826E-2
3.226642932E0,1.527161949E-4,-7.956513762E-2,-6.520981342E-2
3.228753713E0,-1.069013379E-3,-8.445205539E-2,-6.887500733E-2
3.230864494E0,1.527161949E-4,-9.178243577E-2,-7.376192510E-2
3.232975276E0,-2.290742937E-3,-9.911280870E-2,-7.620538026E-2
3.235086057E0,-2.290742937E-3,-1.027780026E-1,-8.109229803E-2
3.237196838E0,1.527161949E-4,-1.088866442E-1,-8.353576064E-2
3.239307619E0,1.527161949E-4,-1.149952933E-1,-8.720094711E-2
3.241418401E0,1.374445739E-3,-1.186604798E-1,-8.964440972E-2
3.243529182E0,1.374445739E-3,-1.235474050E-1,-9.208786488E-2
3.245639963E0,2.596175298E-3,-1.247691289E-1,-9.575305134E-2
3.247750692E0,1.374445739E-3,-1.296560466E-1,-9.819651395E-2
3.249861473E0,3.817904973E-3,-1.296560466E-1,-1.018617004E-1
3.251972255E0,5.039634649E-3,-1.320995092E-1,-1.030834317E-1
3.254083036E0,3.817904973E-3,-1.333212405E-1,-1.079703495E-1
3.256193817E0,2.596175298E-3,-1.333212405E-1,-1.091920808E-1
3.258304598E0,2.596175298E-3,-1.308777779E-1,-1.128572673E-1
3.260415380E0,2.596175298E-3,-1.296560466E-1,-1.140789986E-1
3.262526161E0,2.596175298E-3,-1.259908676E-1,-1.177441850E-1
3.264636942E0,3.817904973E-3,-1.235474050E-1,-1.201876476E-1
3.266747723E0,2.596175298E-3,-1.198822111E-1,-1.226311028E-1
3.268858505E0,3.817904973E-3,-1.137735620E-1,-1.250745654E-1
3.270969286E0,6.261364091E-3,-1.113301069E-1,-1.250745654E-1
3.273080067E0,6.261364091E-3,-1.052214578E-1,-1.299614757E-1
3.275190848E0,7.483093534E-3,-1.015562713E-1,-1.311832070E-1
3.277301630E0,6.261364091E-3,-9.544762224E-2,-1.336266696E-1
3.279412411E0,7.483093534E-3,-9.300415963E-2,-1.348484010E-1
3.281523192E0,9.926552884E-3,-9.300415963E-2,-1.372918636E-1
3.283633973E0,7.483093534E-3,-8.811724186E-2,-1.397353113E-1
3.285744755E0,9.926552884E-3,-8.323032409E-2,-1.397353113E-1
3.287855536E0,1.114828233E-2,-8.078686893E-2,-1.409570426E-1
3.289966265E0,9.926552884E-3,-7.467821985E-2,-1.421787739E-1
3.292077046E0,1.114828233E-2,-6.979130208E-2,-1.434005052E-1
3.294187828E0,1.114828233E-2,-6.368265301E-2,-1.434005052E-1
3.296298609E0,1.359174121E-2,-5.757400393E-2,-1.458439678E-1
3.298409390E0,1.359174121E-2,-5.024362728E-2,-1.470656991E-1
3.300520171E0,1.359174121E-2,-4.291325063E-2,-1.482874304E-1
3.302630953E0,1.481347065E-2,-3.436114267E-2,-1.470656991E-1
3.304741734E0,1.481347065E-2,-2.458730713E-2,-1.495091617E-1
3.306852515E0,1.481347065E-2,-1.725693047E-2,-1.482874304E-1
3.308963296E0,1.603520103E-2,-7.483093534E-3,-1.507308781E-1
3.311074078E0,1.725693047E-2,-1.527161949E-4,-1.495091617E-1
3.313184859E0,1.847865991E-2,8.399390616E-3,-1.507308781E-1
3.315295640E0,1.847865991E-2,1.939495653E-2,-1.507308781E-1
3.317406421E0,2.092211880E-2,2.550360374E-2,-1.531743407E-1
3.319517203E0,1.970038936E-2,3.405570984E-2,-1.531743407E-1
3.321627984E0,1.970038936E-2,4.138609022E-2,-1.531743407E-1
3.323738765E0,2.214384824E-2,5.115992576E-2,-1.531743407E-1
3.325849546E0,2.092211880E-2,6.093376130E-2,-1.531743407E-1
3.327960328E0,2.458730713E-2,6.948586553E-2,-1.531743407E-1
3.330071109E0,2.336557768E-2,7.925970852E-2,-1.543960720E-1
3.332181890E0,2.580903657E-2,9.025526792E-2,-1.531743407E-1
3.334292619E0,2.336557768E-2,1.012508348E-1,-1.531743407E-1
3.336403348E0,2.703076601E-2,1.098029464E-1,-1.519526094E-1
3.338514182E0,2.703076601E-2,1.183550507E-1,-1.507308781E-1
3.340624963E0,2.947422490E-2,1.256854236E-1,-1.507308781E-1
3.342735744E0,2.825249545E-2,1.305723488E-1,-1.507308781E-1
3.344846526E0,2.947422490E-2,1.342375278E-1,-1.519526094E-1
3.346957307E0,3.191768378E-2,1.379027218E-1,-1.507308781E-1
3.349068088E0,2.947422490E-2,1.379027218E-1,-1.519526094E-1
3.351178869E0,3.069595434E-2,1.342375278E-1,-1.519526094E-1
3.353289651E0,3.191768378E-2,1.317940801E-1,-1.507308781E-1
3.355400432E0,3.191768378E-2,1.269071549E-1,-1.519526094E-1
3.357511213E0,2.947422490E-2,1.195767820E-1,-1.531743407E-1
3.359621994E0,2.947422490E-2,1.098029464E-1,-1.531743407E-1
3.361732776E0,2.825249545E-2,1.000291109E-1,-1.531743407E-1
3.363843557E0,2.580903657E-2,9.025526792E-2,-1.556178033E-1
3.365954338E0,2.092211880E-2,7.803797722E-2,-1.556178033E-1
3.368065119E0,2.092211880E-2,6.704241037E-2,-1.556178033E-1
3.370175901E0,1.970038936E-2,5.482511222E-2,-1.556178033E-1
3.372286630E0,1.603520103E-2,4.505127668E-2,-1.568395346E-1
3.374397411E0,1.481347065E-2,2.916879393E-2,-1.556178033E-1
3.376508192E0,9.926552884E-3,1.572976820E-2,-1.556178033E-1
3.378618973E0,9.926552884E-3,2.290742937E-3,-1.543960720E-1
3.380729755E0,9.926552884E-3,-1.237001177E-2,-1.556178033E-1
3.382840536E0,7.483093534E-3,-3.069595434E-2,-1.543960720E-1
3.384951317E0,9.926552884E-3,-4.657844082E-2,-1.556178033E-1
3.387062098E0,8.704823442E-3,-6.368265301E-2,-1.556178033E-1
3.389172880E0,1.114828233E-2,-7.956513762E-2,-1.543960720E-1
3.391283661E0,1.114828233E-2,-9.544762224E-2,-1.531743407E-1
3.393394442E0,1.114828233E-2,-1.064431891E-1,-1.519526094E-1
3.395505223E0,1.237001177E-2,-1.186604798E-1,-1.519526094E-1
3.397616005E0,9.926552884E-3,-1.259908676E-1,-1.519526094E-1
3.399726786E0,1.114828233E-2,-1.333212405E-1,-1.531743407E-1
3.401837567E0,8.704823442E-3,-1.394298822E-1,-1.507308781E-1
3.403948348E0,9.926552884E-3,-1.418733448E-1,-1.495091617E-1
3.406059130E0,1.114828233E-2,-1.394298822E-1,-1.482874304E-1
3.408169911E0,7.483093534E-3,-1.382081509E-1,-1.482874304E-1
3.410280692E0,7.483093534E-3,-1.357647032E-1,-1.470656991E-1
3.412391473E0,8.704823442E-3,-1.296560466E-1,-1.470656991E-1
3.414502203E0,7.483093534E-3,-1.247691289E-1,-1.446222365E-1
3.416612984E0,8.704823442E-3,-1.186604798E-1,-1.446222365E-1
3.418723765E0,9.926552884E-3,-1.113301069E-1,-1.434005052E-1
3.420834546E0,1.114828233E-2,-1.027780026E-1,-1.421787739E-1
3.422945328E0,1.237001177E-2,-9.300415963E-2,-1.409570426E-1
3.425056109E0,1.359174121E-2,-8.323032409E-2,-1.409570426E-1
3.427166890E0,1.481347065E-2,-7.101303339E-2,-1.385135949E-1
3.429277671E0,1.481347065E-2,-6.123919412E-2,-1.372918636E-1
3.431388453E0,1.725693047E-2,-5.024362728E-2,-1.360701323E-1
3.433499234E0,1.847865991E-2,-3.680460155E-2,-1.348484010E-1
3.435610015E0,1.970038936E-2,-2.580903657E-2,-1.348484010E-1
3.437720796E0,1.847865991E-2,-1.114828233E-2,-1.324049383E-1
3.439831578E0,1.847865991E-2,1.069013379E-3,-1.299614757E-1
3.441942359E0,1.847865991E-2,1.450803876E-2,-1.299614757E-1
3.444053140E0,1.847865991E-2,2.550360374E-2,-1.287397593E-1
3.446163921E0,1.603520103E-2,3.649916872E-2,-1.275180280E-1
3.448274703E0,1.603520103E-2,4.505127668E-2,-1.250745654E-1
3.450385484E0,1.481347065E-2,5.360338464E-2,-1.250745654E-1
3.452496265E0,1.603520103E-2,6.337722391E-2,-1.226311028E-1
3.454607046E0,1.725693047E-2,7.070759684E-2,-1.214093715E-1
3.456717828E0,1.603520103E-2,7.437278330E-2,-1.189659163E-1
3.458828557E0,1.725693047E-2,8.170316368E-2,-1.165224537E-1
3.460939338E0,1.847865991E-2,8.903354406E-2,-1.153007299E-1
3.463050119E0,1.847865991E-2,9.025526792E-2,-1.140789986E-1
3.465160901E0,2.214384824E-2,9.514218569E-2,-1.116355360E-1
3.467271682E0,2.336557768E-2,9.880737960E-2,-1.104138121E-1
3.469382463E0,2.092211880E-2,1.012508348E-1,-1.091920808E-1
3.471493244E0,2.092211880E-2,1.036942974E-1,-1.091920808E-1
3.473604026E0,2.092211880E-2,1.061377525E-1,-1.079703495E-1
3.475714807E0,2.092211880E-2,1.073594838E-1,-1.067486182E-1
3.477825588E0,2.092211880E-2,1.098029464E-1,-1.043051630E-1
3.479936369E0,1.847865991E-2,1.122464016E-1,-1.030834317E-1
3.482047151E0,1.725693047E-2,1.110246703E-1,-1.006399691E-1
3.484157932E0,1.725693047E-2,1.110246703E-1,-9.941824526E-2
3.486268713E0,1.481347065E-2,1.085812151E-1,-9.819651395E-2
3.488379494E0,1.603520103E-2,1.098029464E-1,-9.697478265E-2
3.490490276E0,1.237001177E-2,1.073594838E-1,-9.575305134E-2
3.492601057E0,1.237001177E-2,1.049160287E-1,-9.330959618E-2
3.494711838E0,1.359174121E-2,1.024725661E-1,-9.086613357E-2
3.496822619E0,1.481347065E-2,9.636391699E-2,-8.842267841E-2
3.498933401E0,1.359174121E-2,9.514218569E-2,-8.720094711E-2
3.501044182E0,1.359174121E-2,9.025526792E-2,-8.597921580E-2
3.503154911E0,1.603520103E-2,8.659008145E-2,-8.475748450E-2
3.505265692E0,1.603520103E-2,8.292489499E-2,-8.231402934E-2
3.507376473E0,1.481347065E-2,7.681624591E-2,-8.109229803E-2
3.509487255E0,1.481347065E-2,7.192932814E-2,-7.742711157E-2
3.511598036E0,1.359174121E-2,6.826414168E-2,-7.742711157E-2
3.513708817E0,1.481347065E-2,6.337722391E-2,-7.498364896E-2
3.515819598E0,1.359174121E-2,6.093376130E-2,-7.376192510E-2
3.517930380E0,1.237001177E-2,5.726857483E-2,-7.376192510E-2
3.520041161E0,9.926552884E-3,5.360338464E-2,-7.131846249E-2
3.522151942E0,8.704823442E-3,5.238165334E-2,-6.887500733E-2
3.524262723E0,6.261364091E-3,5.238165334E-2,-6.643154472E-2
3.526373505E0,6.261364091E-3,5.115992576E-2,-6.398808211E-2
3.528484286E0,3.817904973E-3,4.993819445E-2,-6.154462695E-2
3.530595067E0,5.039634649E-3,4.871646687E-2,-6.032289565E-2
3.532705848E0,2.596175298E-3,4.627300799E-2,-5.910116807E-2
3.534816630E0,3.817904973E-3,4.505127668E-2,-5.543597788E-2
3.536927411E0,3.817904973E-3,4.138609022E-2,-5.177079141E-2
3.539038192E0,5.039634649E-3,3.894263133E-2,-5.054906011E-2
3.541148973E0,5.039634649E-3,3.283398226E-2,-4.688387364E-2
3.543259703E0,8.704823442E-3,2.794706449E-2,-4.566214234E-2
3.545370484E0,7.483093534E-3,2.306014486E-2,-4.199695215E-2
3.547481265E0,8.704823442E-3,1.817322709E-2,-3.833176568E-2
3.549592046E0,7.483093534E-3,1.572976820E-2,-3.466657549E-2
3.551702828E0,8.704823442E-3,1.084284950E-2,-3.222311661E-2
3.553813609E0,7.483093534E-3,9.621120058E-3,-2.855792828E-2
3.555924390E0,7.483093534E-3,7.177661173E-3,-2.611446939E-2
3.558035171E0,6.261364091E-3,7.177661173E-3,-2.244928107E-2
3.560145953E0,5.039634649E-3,7.177661173E-3,-2.000582218E-2
3.562256734E0,3.817904973E-3,8.399390616E-3,-1.511890348E-2
3.564367515E0,3.817904973E-3,7.177661173E-3,-1.389717404E-2
3.566478296E0,1.374445739E-3,5.955931731E-3,-9.010255337E-3
3.568589078E0,-1.069013379E-3,4.734201822E-3,-7.788525894E-3
3.570699859E0,-1.069013379E-3,5.955931731E-3,-4.123337101E-3
3.572810640E0,-1.069013379E-3,2.290742937E-3,-1.679878100E-3
3.574921421E0,1.527161949E-4,-1.527161949E-4,4.428769462E-3
3.577032203E0,1.527161949E-4,-1.374445739E-3,5.650499370E-3
3.579142984E0,1.527161949E-4,-3.817904973E-3,9.315688163E-3
3.581253713E0,-1.069013379E-3,-7.483093534E-3,1.420260593E-2
3.583364546E0,-1.069013379E-3,-8.704823442E-3,1.908952370E-2
3.585475276E0,-2.290742937E-3,-8.704823442E-3,2.153298259E-2
3.587586057E0,-1.069013379E-3,-8.704823442E-3,2.275471389E-2
3.589696838E0,1.527161949E-4,-9.926552884E-3,2.764163166E-2
3.591807619E0,-2.290742937E-3,-9.926552884E-3,3.130681813E-2
3.593918401E0,-4.734201822E-3,-8.704823442E-3,3.497200832E-2
3.596029182E0,-3.512472380E-3,-7.483093534E-3,3.985892609E-2
3.598139963E0,-5.955931731E-3,-6.261364091E-3,4.230238497E-2
3.600250744E0,-5.955931731E-3,-3.817904973E-3,4.841103405E-2
3.602361526E0,-7.177661173E-3,-2.596175298E-3,4.963276163E-2
3.604472307E0,-9.621120058E-3,-1.527161949E-4,5.574141070E-2
3.606583088E0,-9.621120058E-3,2.290742937E-3,5.940660089E-2
3.608693869E0,-1.084284950E-2,4.734201822E-3,6.185005978E-2
3.610804651E0,-8.399390616E-3,4.734201822E-3,6.673697382E-2
3.612915432E0,-7.177661173E-3,7.177661173E-3,7.040216774E-2
3.615026213E0,-9.621120058E-3,9.621120058E-3,7.528908551E-2
3.617136994E0,-5.955931731E-3,1.328630932E-2,7.773254067E-2
3.619247776E0,-5.955931731E-3,1.817322709E-2,8.139773458E-2
3.621358557E0,-4.734201822E-3,2.306014486E-2,8.628465235E-2
3.623469338E0,-5.955931731E-3,2.916879393E-2,8.994983882E-2
3.625580119E0,-5.955931731E-3,3.772090003E-2,9.239330143E-2
3.627690848E0,-3.512472380E-3,4.749473557E-2,9.361502528E-2
3.629801630E0,-4.734201822E-3,5.726857483E-2,9.850194305E-2
3.631912411E0,-3.512472380E-3,6.704241037E-2,1.021671370E-1
3.634023192E0,-5.955931731E-3,7.803797722E-2,1.046105921E-1
3.636133973E0,-7.177661173E-3,8.659008145E-2,1.082757786E-1
3.638244755E0,-9.621120058E-3,9.880737960E-2,1.094975099E-1
3.640355536E0,-9.621120058E-3,1.073594838E-1,1.119409725E-1
3.642466317E0,-9.621120058E-3,1.171333194E-1,1.156061590E-1
3.644577098E0,-8.399390616E-3,1.256854236E-1,1.180496216E-1
3.646687880E0,-8.399390616E-3,1.317940801E-1,1.192713454E-1
3.648798661E0,-7.177661173E-3,1.403461844E-1,1.229365394E-1
3.650909442E0,-7.177661173E-3,1.427896470E-1,1.241582632E-1
3.653020223E0,-5.955931731E-3,1.464548260E-1,1.253799945E-1
3.655131005E0,-7.177661173E-3,1.488982886E-1,1.278234571E-1
3.657241786E0,-5.955931731E-3,1.525634825E-1,1.314886510E-1
3.659352567E0,-2.290742937E-3,1.501200199E-1,1.327103674E-1
3.661463348E0,-2.290742937E-3,1.537852138E-1,1.327103674E-1
3.663574130E0,-4.734201822E-3,1.537852138E-1,1.351538301E-1
3.665684911E0,-2.290742937E-3,1.537852138E-1,1.351538301E-1
3.667795640E0,-3.512472380E-3,1.537852138E-1,1.363755614E-1
3.669906421E0,-3.512472380E-3,1.525634825E-1,1.375972927E-1
3.672017203E0,-3.512472380E-3,1.513417512E-1,1.375972927E-1
3.674128036E0,-5.955931731E-3,1.488982886E-1,1.388190240E-1
3.676238765E0,-5.955931731E-3,1.464548260E-1,1.375972927E-1
3.678349546E0,-1.084284950E-2,1.415679157E-1,1.375972927E-1
3.680460328E0,-7.177661173E-3,1.379027218E-1,1.375972927E-1
3.682571109E0,-9.621120058E-3,1.342375278E-1,1.375972927E-1
3.684681838E0,-8.399390616E-3,1.269071549E-1,1.388190240E-1
3.686792671E0,-9.621120058E-3,1.195767820E-1,1.388190240E-1
3.688903453E0,-9.621120058E-3,1.110246703E-1,1.388190240E-1
3.691014234E0,-9.621120058E-3,1.024725661E-1,1.363755614E-1
3.693125015E0,-9.621120058E-3,9.514218569E-2,1.375972927E-1
3.695235796E0,-7.177661173E-3,8.414662629E-2,1.351538301E-1
3.697346578E0,-8.399390616E-3,7.315105945E-2,1.339320987E-1
3.699457359E0,-5.955931731E-3,6.093376130E-2,1.339320987E-1
3.701568140E0,-7.177661173E-3,4.993819445E-2,1.327103674E-1
3.703678921E0,-7.177661173E-3,4.138609022E-2,1.302669197E-1
3.705789703E0,-7.177661173E-3,3.405570984E-2,1.290451884E-1
3.707900484E0,-7.177661173E-3,2.428187430E-2,1.253799945E-1
3.710011265E0,-9.621120058E-3,1.572976820E-2,1.241582632E-1
3.712122046E0,-1.084284950E-2,5.955931731E-3,1.217148080E-1
3.714232776E0,-1.206457894E-2,-2.596175298E-3,1.192713454E-1
3.716343557E0,-1.206457894E-2,-1.114828233E-2,1.168278903E-1
3.718454338E0,-1.206457894E-2,-1.847865991E-2,1.143844277E-1
3.720565119E0,-1.450803876E-2,-2.703076601E-2,1.119409725E-1
3.722675901E0,-1.450803876E-2,-3.558287397E-2,1.094975099E-1
3.724786682E0,-1.695149764E-2,-4.535670951E-2,1.058323234E-1
3.726897463E0,-1.817322709E-2,-5.635227636E-2,1.033888608E-1
3.729008244E0,-1.817322709E-2,-6.490438432E-2,1.021671370E-1
3.731119026E0,-1.817322709E-2,-7.101303339E-2,9.850194305E-2
3.733229807E0,-1.695149764E-2,-8.078686893E-2,9.605848789E-2
3.735340588E0,-1.572976820E-2,-8.933897316E-2,9.239330143E-2
3.737451369E0,-1.450803876E-2,-9.544762224E-2,8.994983882E-2
3.739562151E0,-1.084284950E-2,-1.027780026E-1,8.750637621E-2
3.741672932E0,-1.206457894E-2,-1.076649204E-1,8.384118974E-2
3.743783713E0,-1.328630932E-2,-1.113301069E-1,8.139773458E-2
3.745894442E0,-1.206457894E-2,-1.137735620E-1,8.017600328E-2
3.748005276E0,-1.206457894E-2,-1.162170246E-1,7.528908551E-2
3.750116057E0,-1.084284950E-2,-1.162170246E-1,7.040216774E-2
3.752226786E0,-1.084284950E-2,-1.211039424E-1,6.918043643E-2
3.754337619E0,-1.206457894E-2,-1.211039424E-1,6.551524997E-2
3.756448348E0,-1.328630932E-2,-1.186604798E-1,6.185005978E-2
3.758559130E0,-1.328630932E-2,-1.186604798E-1,5.818486959E-2
3.760669911E0,-1.450803876E-2,-1.149952933E-1,5.451968312E-2
3.762780692E0,-1.450803876E-2,-1.125518382E-1,5.207622424E-2
3.764891473E0,-1.450803876E-2,-1.088866442E-1,4.963276163E-2
3.767002255E0,-1.450803876E-2,-1.015562713E-1,4.474584386E-2
3.769113036E0,-1.450803876E-2,-9.544762224E-2,4.108065739E-2
3.771223817E0,-1.206457894E-2,-8.811724186E-2,3.863719851E-2
3.773334598E0,-1.450803876E-2,-7.712167501E-2,3.497200832E-2
3.775445380E0,-1.084284950E-2,-6.979130208E-2,3.130681813E-2
3.777556161E0,-9.621120058E-3,-5.879573524E-2,2.886336111E-2
3.779666942E0,-1.084284950E-2,-4.535670951E-2,2.519817278E-2
3.781777723E0,-8.399390616E-3,-2.947422490E-2,2.275471389E-2
3.783888505E0,-5.955931731E-3,-1.603520103E-2,2.031125315E-2
3.785999286E0,-3.512472380E-3,-1.527161949E-4,1.664606482E-2
3.788110067E0,-1.069013379E-3,1.572976820E-2,1.542433538E-2
3.790220848E0,1.527161949E-4,3.405570984E-2,1.420260593E-2
3.792331630E0,2.596175298E-3,5.238165334E-2,1.053741761E-2
3.794442411E0,5.039634649E-3,6.826414168E-2,8.093958721E-3
3.796553140E0,7.483093534E-3,8.536835015E-2,5.650499370E-3
3.798663921E0,9.926552884E-3,1.036942974E-1,4.428769462E-3
3.800774703E0,1.114828233E-2,1.207985133E-1,7.635809598E-4
3.802885484E0,1.237001177E-2,1.379027218E-1,-1.679878100E-3
3.804996265E0,1.359174121E-2,1.574503928E-1,-4.123337101E-3
3.807107046E0,1.481347065E-2,1.733328849E-1,-5.345067009E-3
3.809217828E0,1.603520103E-2,1.879936308E-1,-1.023198478E-2
3.811328609E0,1.725693047E-2,2.014326602E-1,-1.145371422E-2
3.813439390E0,1.847865991E-2,2.160934210E-1,-1.389717404E-2
3.815550171E0,1.725693047E-2,2.270889878E-1,-1.634063199E-2
3.817660953E0,1.970038936E-2,2.356410921E-1,-1.878409274E-2
3.819771734E0,2.214384824E-2,2.441931963E-1,-2.244928107E-2
3.821882515E0,2.092211880E-2,2.503018379E-1,-2.367101051E-2
3.823993296E0,1.970038936E-2,2.539670467E-1,-2.611446939E-2
3.826104078E0,1.970038936E-2,2.539670467E-1,-2.855792828E-2
3.828214859E0,1.970038936E-2,2.527453005E-1,-3.100138716E-2
3.830325640E0,1.970038936E-2,2.503018379E-1,-3.344484791E-2
3.832436421E0,1.847865991E-2,2.490801066E-1,-3.588830680E-2
3.834547203E0,1.970038936E-2,2.441931963E-1,-3.711003438E-2
3.836657932E0,2.092211880E-2,2.356410921E-1,-4.077522457E-2
3.838768713E0,1.847865991E-2,2.283107042E-1,-4.199695215E-2
3.840879494E0,1.970038936E-2,2.197586000E-1,-4.444041103E-2
3.842990276E0,1.970038936E-2,2.099847645E-1,-4.688387364E-2
3.845101057E0,1.970038936E-2,1.953240186E-1,-4.932733253E-2
3.847211838E0,1.847865991E-2,1.831067204E-1,-5.177079141E-2
3.849322619E0,1.970038936E-2,1.708894223E-1,-5.543597788E-2
3.851433401E0,2.092211880E-2,1.562286615E-1,-5.787943676E-2
3.853544182E0,2.092211880E-2,1.415679157E-1,-6.154462695E-2
3.855654963E0,2.092211880E-2,1.244636998E-1,-6.520981342E-2
3.857765744E0,1.970038936E-2,1.098029464E-1,-6.765327603E-2
3.859876526E0,2.092211880E-2,9.514218569E-2,-7.009673119E-2
3.861987307E0,1.847865991E-2,8.048143238E-2,-7.498364896E-2
3.864098088E0,1.847865991E-2,6.704241037E-2,-7.742711157E-2
3.866208869E0,1.847865991E-2,4.993819445E-2,-8.109229803E-2
3.868319651E0,1.847865991E-2,3.283398226E-2,-8.475748450E-2
3.870430432E0,1.603520103E-2,1.939495653E-2,-8.842267841E-2
3.872541213E0,1.481347065E-2,4.734201822E-3,-9.086613357E-2
3.874651994E0,1.359174121E-2,-1.114828233E-2,-9.575305134E-2
3.876762776E0,1.237001177E-2,-2.947422490E-2,-9.941824526E-2
3.878873505E0,1.237001177E-2,-4.780016840E-2,-1.030834317E-1
3.880984286E0,8.704823442E-3,-6.368265301E-2,-1.055268943E-1
3.883095067E0,7.483093534E-3,-7.712167501E-2,-1.079703495E-1
3.885205848E0,6.261364091E-3,-9.300415963E-2,-1.128572673E-1
3.887316630E0,7.483093534E-3,-1.076649204E-1,-1.165224537E-1
3.889427411E0,6.261364091E-3,-1.211039424E-1,-1.214093715E-1
3.891538192E0,3.817904973E-3,-1.333212405E-1,-1.250745654E-1
3.893648973E0,5.039634649E-3,-1.443168074E-1,-1.287397593E-1
3.895759755E0,6.261364091E-3,-1.528689116E-1,-1.324049383E-1
3.897870536E0,6.261364091E-3,-1.614210159E-1,-1.348484010E-1
3.899981317E0,5.039634649E-3,-1.663079411E-1,-1.397353113E-1
3.902092098E0,6.261364091E-3,-1.699731201E-1,-1.421787739E-1
3.904202880E0,5.039634649E-3,-1.724165827E-1,-1.458439678E-1
3.906313661E0,5.039634649E-3,-1.736383140E-1,-1.495091617E-1
3.908424442E0,5.039634649E-3,-1.699731201E-1,-1.519526094E-1
3.910535223E0,3.817904973E-3,-1.687513888E-1,-1.556178033E-1
3.912646005E0,5.039634649E-3,-1.638644785E-1,-1.580612659E-1
3.914756786E0,5.039634649E-3,-1.540906429E-1,-1.617264450E-1
3.916867515E0,3.817904973E-3,-1.455385387E-1,-1.641699076E-1
3.918978348E0,5.039634649E-3,-1.357647032E-1,-1.678351015E-1
3.921089078E0,3.817904973E-3,-1.247691289E-1,-1.702785641E-1
3.923199859E0,7.483093534E-3,-1.088866442E-1,-1.727220118E-1
3.925310640E0,9.926552884E-3,-9.056070447E-2,-1.763872057E-1
3.927421421E0,1.114828233E-2,-7.345648855E-2,-1.800523996E-1
3.929532203E0,1.481347065E-2,-5.146535859E-2,-1.837175786E-1
3.931642984E0,1.603520103E-2,-2.947422490E-2,-1.849393100E-1
3.933753765E0,2.092211880E-2,-6.261364091E-3,-1.886045039E-1
3.935864546E0,2.458730713E-2,1.572976820E-2,-1.898262352E-1
3.937975328E0,2.580903657E-2,4.016435891E-2,-1.947131455E-1
3.940086109E0,2.947422490E-2,6.459894776E-2,-1.983783394E-1
3.942196890E0,2.947422490E-2,8.781181276E-2,-2.008218020E-1
3.944307619E0,3.313941509E-2,1.134681329E-1,-2.032652497E-1
3.946418453E0,3.436114267E-2,1.379027218E-1,-2.032652497E-1
3.948529234E0,3.558287397E-2,1.611155868E-1,-2.069304436E-1
3.950640015E0,3.558287397E-2,1.831067204E-1,-2.105956376E-1
3.952750796E0,3.802633286E-2,2.050978541E-1,-2.142608166E-1
3.954861578E0,3.924806044E-2,2.283107042E-1,-2.154825479E-1
3.956972359E0,4.046979174E-2,2.490801066E-1,-2.167042792E-1
3.959083140E0,4.169152305E-2,2.686277926E-1,-2.191477418E-1
3.961193869E0,4.413498193E-2,2.869537175E-1,-2.215912044E-1
3.963304651E0,4.291325063E-2,3.028362095E-1,-2.240346521E-1
3.965415432E0,4.291325063E-2,3.187187016E-1,-2.252563834E-1
3.967526213E0,4.413498193E-2,3.321577311E-1,-2.264781147E-1
3.969636994E0,4.657844082E-2,3.419315517E-1,-2.289215773E-1
3.971747776E0,4.780016840E-2,3.529271185E-1,-2.289215773E-1
3.973858557E0,4.902189970E-2,3.590357602E-1,-2.313650399E-1
3.975969338E0,4.902189970E-2,3.639226854E-1,-2.338084877E-1
3.978080119E0,5.024362728E-2,3.639226854E-1,-2.338084877E-1
3.980190901E0,5.024362728E-2,3.627009690E-1,-2.350302190E-1
3.982301682E0,5.024362728E-2,3.614792228E-1,-2.362519503E-1
3.984412463E0,5.146535859E-2,3.541488647E-1,-2.374736816E-1
3.986523244E0,5.146535859E-2,3.468184769E-1,-2.386954129E-1
3.988634026E0,5.268708616E-2,3.358229101E-1,-2.399171442E-1
3.990744807E0,5.268708616E-2,3.248273432E-1,-2.411388755E-1
3.992855588E0,5.268708616E-2,3.113883138E-1,-2.423606068E-1
3.994966369E0,5.024362728E-2,2.906189263E-1,-2.448040545E-1
3.997077151E0,4.902189970E-2,2.735147178E-1,-2.472475171E-1
3.999187932E0,4.902189970E-2,2.515235841E-1,-2.484692484E-1
4.001298713E0,4.657844082E-2,2.283107042E-1,-2.509126961E-1
4.003409442E0,4.413498193E-2,2.050978541E-1,-2.509126961E-1
4.005520223E0,4.413498193E-2,1.818849891E-1,-2.545779049E-1
4.007631005E0,4.169152305E-2,1.550069451E-1,-2.557996213E-1
4.009741786E0,3.802633286E-2,1.281288862E-1,-2.570213675E-1
4.011852567E0,3.802633286E-2,1.012508348E-1,-2.594648004E-1
4.013963348E0,3.436114267E-2,7.559451461E-2,-2.594648004E-1
4.016074130E0,3.191768378E-2,5.238165334E-2,-2.606865466E-1
4.018184911E0,3.069595434E-2,2.550360374E-2,-2.619082630E-1
4.020295692E0,3.069595434E-2,1.069013379E-3,-2.619082630E-1
4.022406473E0,2.947422490E-2,-2.092211880E-2,-2.619082630E-1
4.024517255E0,2.825249545E-2,-4.413498193E-2,-2.631300092E-1
4.026628036E0,2.703076601E-2,-6.368265301E-2,-2.643517256E-1
4.028738817E0,2.336557768E-2,-8.323032409E-2,-2.643517256E-1
4.030849598E0,2.336557768E-2,-1.003345400E-1,-2.655734718E-1
4.032960380E0,2.336557768E-2,-1.162170246E-1,-2.631300092E-1
4.035071161E0,1.970038936E-2,-1.284343153E-1,-2.631300092E-1
4.037181942E0,2.092211880E-2,-1.369864196E-1,-2.631300092E-1
4.039292723E0,1.847865991E-2,-1.479819864E-1,-2.619082630E-1
4.041403505E0,1.481347065E-2,-1.540906429E-1,-2.606865466E-1
4.043514286E0,1.481347065E-2,-1.589775532E-1,-2.594648004E-1
4.045625015E0,1.359174121E-2,-1.650862098E-1,-2.582430840E-1
4.047735796E0,1.114828233E-2,-1.650862098E-1,-2.557996213E-1
4.049846578E0,9.926552884E-3,-1.650862098E-1,-2.545779049E-1
4.051957359E0,1.114828233E-2,-1.614210159E-1,-2.509126961E-1
4.054068140E0,9.926552884E-3,-1.565341055E-1,-2.484692484E-1
4.056178921E0,1.114828233E-2,-1.492037177E-1,-2.448040545E-1
4.058289703E0,1.114828233E-2,-1.418733448E-1,-2.423606068E-1
4.060400484E0,1.237001177E-2,-1.308777779E-1,-2.399171442E-1
4.062511265E0,1.603520103E-2,-1.174387559E-1,-2.338084877E-1
4.064622046E0,1.725693047E-2,-1.015562713E-1,-2.301433086E-1
4.066732828E0,1.970038936E-2,-8.445205539E-2,-2.264781147E-1
4.068843609E0,2.092211880E-2,-6.856957078E-2,-2.228129357E-1
4.070954390E0,2.580903657E-2,-4.657844082E-2,-2.191477418E-1
4.073065171E0,2.458730713E-2,-2.947422490E-2,-2.154825479E-1
4.075175953E0,2.703076601E-2,-7.483093534E-3,-2.105956376E-1
4.077286734E0,2.703076601E-2,1.572976820E-2,-2.069304436E-1
4.079397515E0,2.825249545E-2,3.772090003E-2,-2.044869810E-1
4.081508296E0,3.069595434E-2,6.215549260E-2,-1.996000707E-1
4.083619026E0,2.825249545E-2,8.536835015E-2,-1.947131455E-1
4.085729807E0,2.947422490E-2,1.049160287E-1,-1.922696829E-1
4.087840588E0,2.947422490E-2,1.281288862E-1,-1.886045039E-1
4.089951421E0,2.703076601E-2,1.488982886E-1,-1.837175786E-1
4.092062151E0,2.703076601E-2,1.672242284E-1,-1.800523996E-1
4.094172932E0,2.825249545E-2,1.843284518E-1,-1.763872057E-1
4.096283713E0,2.947422490E-2,2.002109289E-1,-1.715002805E-1
4.098394494E0,2.947422490E-2,2.124282271E-1,-1.690568328E-1
4.100505276E0,3.191768378E-2,2.283107042E-1,-1.653916389E-1
4.102616057E0,3.069595434E-2,2.368628234E-1,-1.605047137E-1
4.104726838E0,3.313941509E-2,2.466366589E-1,-1.568395346E-1
4.106837619E0,3.558287397E-2,2.539670467E-1,-1.556178033E-1
4.108948401E0,3.558287397E-2,2.576322258E-1,-1.507308781E-1
4.111059182E0,3.680460155E-2,2.612974048E-1,-1.482874304E-1
4.113169963E0,3.680460155E-2,2.612974048E-1,-1.446222365E-1
4.115280744E0,3.802633286E-2,2.625191510E-1,-1.409570426E-1
4.117391526E0,3.558287397E-2,2.576322258E-1,-1.385135949E-1
4.119502307E0,3.436114267E-2,2.527453005E-1,-1.372918636E-1
4.121613088E0,3.436114267E-2,2.441931963E-1,-1.348484010E-1
4.123723869E0,3.191768378E-2,2.380845547E-1,-1.336266696E-1
4.125834598E0,2.947422490E-2,2.258672565E-1,-1.287397593E-1
4.127945380E0,2.703076601E-2,2.136499584E-1,-1.275180280E-1
4.130056161E0,2.703076601E-2,2.002109289E-1,-1.262962967E-1
4.132166942E0,2.336557768E-2,1.855501831E-1,-1.226311028E-1
4.134277723E0,2.092211880E-2,1.696676910E-1,-1.214093715E-1
4.136388505E0,1.847865991E-2,1.525634825E-1,-1.189659163E-1
4.138499286E0,1.970038936E-2,1.366809905E-1,-1.189659163E-1
4.140610067E0,1.603520103E-2,1.195767820E-1,-1.140789986E-1
4.142720848E0,1.603520103E-2,1.024725661E-1,-1.140789986E-1
4.144831630E0,1.359174121E-2,8.659008145E-2,-1.128572673E-1
4.146942411E0,1.237001177E-2,7.070759684E-2,-1.104138121E-1
4.149053192E0,1.114828233E-2,5.238165334E-2,-1.067486182E-1
4.151163973E0,1.237001177E-2,3.527744114E-2,-1.067486182E-1
4.153274755E0,9.926552884E-3,1.817322709E-2,-1.018617004E-1
4.155385536E0,1.114828233E-2,4.734201822E-3,-1.006399691E-1
4.157496317E0,7.483093534E-3,-8.704823442E-3,-9.819651395E-2
4.159607098E0,7.483093534E-3,-2.214384824E-2,-9.453132749E-2
4.161717880E0,6.261364091E-3,-3.313941509E-2,-9.208786488E-2
4.163828609E0,5.039634649E-3,-4.291325063E-2,-8.964440972E-2
4.165939442E0,5.039634649E-3,-5.268708616E-2,-8.842267841E-2
4.168050223E0,3.817904973E-3,-6.001746282E-2,-8.475748450E-2
4.170161005E0,3.817904973E-3,-6.734783947E-2,-8.231402934E-2
4.172271734E0,2.596175298E-3,-7.345648855E-2,-7.864884287E-2
4.174382515E0,1.374445739E-3,-7.834340632E-2,-7.620538026E-2
4.176493296E0,3.817904973E-3,-7.834340632E-2,-7.254019380E-2
4.178604078E0,2.596175298E-3,-8.200860023E-2,-6.765327603E-2
4.180714859E0,2.596175298E-3,-8.200860023E-2,-6.643154472E-2
4.182825640E0,1.527161949E-4,-8.078686893E-2,-6.398808211E-2
4.184936421E0,3.817904973E-3,-7.834340632E-2,-6.032289565E-2
4.187047203E0,1.374445739E-3,-7.712167501E-2,-5.787943676E-2
4.189157984E0,3.817904973E-3,-7.223475724E-2,-5.421425030E-2
4.191268765E0,1.374445739E-3,-6.734783947E-2,-5.054906011E-2
4.193379546E0,1.374445739E-3,-6.246092543E-2,-4.810560122E-2
4.195490328E0,2.596175298E-3,-5.757400393E-2,-4.444041103E-2
4.197601109E0,2.596175298E-3,-5.390881747E-2,-4.199695215E-2
