"Time (s)","Acceleration x (m/s^2)","Acceleration y (m/s^2)","Acceleration z (m/s^2)"
1.445241100E-2,4.383651257E0,1.579262912E-1,-8.690732002E0
1.656319200E-2,4.383651257E0,1.339980662E-1,-8.685946465E0
1.867397300E-2,4.369294167E0,1.292124242E-1,-8.676374435E0
2.078475500E-2,4.359723091E0,1.052841991E-1,-8.671588898E0
2.289553600E-2,4.350151539E0,1.148554832E-1,-8.685946465E0
2.500631700E-2,4.345366001E0,8.135596663E-2,-8.690732002E0
2.711709800E-2,4.340580463E0,8.614161611E-2,-8.681160927E0
2.922788000E-2,4.345366001E0,8.135596663E-2,-8.685946465E0
3.133866100E-2,4.345366001E0,6.699903309E-2,-8.671588898E0
3.344944200E-2,4.350151539E0,7.657032460E-2,-8.695517540E0
3.556022300E-2,4.369294167E0,7.657032460E-2,-8.685946465E0
3.767100500E-2,4.383651257E0,6.221338734E-2,-8.671588898E0
3.978178600E-2,4.374079704E0,4.785645381E-2,-8.681160927E0
4.189256700E-2,4.393222332E0,4.785645381E-2,-8.681160927E0
4.400334800E-2,4.393222332E0,3.828516230E-2,-8.671588898E0
4.611407800E-2,4.402793884E0,3.349951655E-2,-8.657232285E0
4.822491100E-2,4.412364960E0,3.828516230E-2,-8.676374435E0
5.033569200E-2,4.412364960E0,9.571290575E-3,-8.666803360E0
5.244642100E-2,4.402793884E0,1.914258115E-2,-8.652446747E0
5.455725500E-2,4.412364960E0,1.914258115E-2,-8.657232285E0
5.666798400E-2,4.417150497E0,1.435693540E-2,-8.647661209E0
5.877876500E-2,4.417150497E0,4.785645287E-3,-8.642875671E0
6.088954600E-2,4.412364960E0,0.000000000E0,-8.638090134E0
6.300032800E-2,4.393222332E0,-2.392822690E-2,-8.638090134E0
6.511110900E-2,4.383651257E0,-2.392822690E-2,-8.614161491E0
6.722189000E-2,4.378865242E0,-2.392822690E-2,-8.623732567E0
6.933267100E-2,4.374079704E0,-4.307080805E-2,-8.623732567E0
7.144345300E-2,4.354937077E0,-3.828516230E-2,-8.604590416E0
7.355423400E-2,4.350151539E0,-4.307080805E-2,-8.614161491E0
7.566501500E-2,4.350151539E0,-3.828516230E-2,-8.623732567E0
7.777579600E-2,4.331008911E0,-3.828516230E-2,-8.638090134E0
7.988657800E-2,4.316651821E0,-2.392822690E-2,-8.652446747E0
8.199735900E-2,4.311866283E0,-2.392822690E-2,-8.676374435E0
8.410814000E-2,4.292723656E0,4.785645287E-3,-8.671588898E0
8.621892100E-2,4.297509670E0,0.000000000E0,-8.666803360E0
8.832970300E-2,4.287938118E0,4.785645287E-3,-8.709874153E0
9.044048400E-2,4.273581028E0,2.392822690E-2,-8.700303078E0
9.255126500E-2,4.287938118E0,5.742774159E-2,-8.700303078E0
9.466204600E-2,4.268795490E0,4.785645381E-2,-8.714659691E0
9.677282800E-2,4.287938118E0,6.699903309E-2,-8.729017258E0
9.888355700E-2,4.278367043E0,9.092725813E-2,-8.743373871E0
1.009943380E-1,4.283152580E0,9.092725813E-2,-8.748159409E0
1.031051710E-1,4.278367043E0,1.004985496E-1,-8.748159409E0
1.052159010E-1,4.297509670E0,1.100698411E-1,-8.757730484E0
1.073266820E-1,4.283152580E0,1.100698411E-1,-8.767302513E0
1.094374630E-1,4.302295208E0,1.148554832E-1,-8.762516975E0
1.115482440E-1,4.302295208E0,1.196411327E-1,-8.767302513E0
1.136590260E-1,4.307080746E0,1.387837082E-1,-8.743373871E0
1.157698070E-1,4.316651821E0,1.196411327E-1,-8.729017258E0
1.178805880E-1,4.321437836E0,1.196411327E-1,-8.733802795E0
1.199913690E-1,4.321437836E0,1.196411327E-1,-8.690732002E0
1.221021510E-1,4.354937077E0,1.196411327E-1,-8.700303078E0
1.242129320E-1,4.350151539E0,1.196411327E-1,-8.709874153E0
1.263237130E-1,4.359723091E0,1.244267747E-1,-8.700303078E0
1.284344940E-1,4.374079704E0,1.100698411E-1,-8.671588898E0
1.305452760E-1,4.359723091E0,1.100698411E-1,-8.671588898E0
1.326560570E-1,4.374079704E0,1.196411327E-1,-8.666803360E0
1.347668380E-1,4.378865242E0,1.148554832E-1,-8.662017822E0
1.368776190E-1,4.388436794E0,1.004985496E-1,-8.652446747E0
1.389884010E-1,4.388436794E0,1.052841991E-1,-8.642875671E0
1.410991820E-1,4.393222332E0,1.244267747E-1,-8.662017822E0
1.432099630E-1,4.393222332E0,1.244267747E-1,-8.633303642E0
1.453207440E-1,4.407579422E0,1.148554832E-1,-8.652446747E0
1.474315260E-1,4.383651257E0,1.196411327E-1,-8.652446747E0
1.495423070E-1,4.388436794E0,1.052841991E-1,-8.623732567E0
1.516530880E-1,4.378865242E0,9.092725813E-2,-8.662017822E0
1.537638690E-1,4.364508629E0,9.092725813E-2,-8.652446747E0
1.558745980E-1,4.350151539E0,6.221338734E-2,-8.642875671E0
1.579853800E-1,4.345366001E0,5.264209956E-2,-8.647661209E0
1.600961610E-1,4.321437836E0,3.828516230E-2,-8.666803360E0
1.622069420E-1,4.321437836E0,4.785645381E-2,-8.662017822E0
1.643177230E-1,4.297509670E0,2.392822690E-2,-8.666803360E0
1.664285050E-1,4.287938118E0,9.571290575E-3,-8.657232285E0
1.685392860E-1,4.268795490E0,9.571290575E-3,-8.647661209E0
1.706500670E-1,4.268795490E0,0.000000000E0,-8.662017822E0
1.727608480E-1,4.249652863E0,2.392822690E-2,-8.652446747E0
1.748716300E-1,4.254438877E0,9.571290575E-3,-8.657232285E0
1.769824110E-1,4.244867325E0,1.914258115E-2,-8.666803360E0
1.790931920E-1,4.254438877E0,2.392822690E-2,-8.676374435E0
1.812039730E-1,4.264009953E0,3.349951655E-2,-8.685946465E0
1.833147550E-1,4.244867325E0,5.264209956E-2,-8.705088615E0
1.854255360E-1,4.264009953E0,5.264209956E-2,-8.714659691E0
1.875363170E-1,4.268795490E0,4.785645381E-2,-8.733802795E0
1.896470980E-1,4.287938118E0,4.307080805E-2,-8.738588333E0
1.917578800E-1,4.287938118E0,3.349951655E-2,-8.762516975E0
1.938686610E-1,4.302295208E0,3.349951655E-2,-8.757730484E0
1.959794420E-1,4.307080746E0,2.871387079E-2,-8.786444664E0
1.980902230E-1,4.340580463E0,2.392822690E-2,-8.762516975E0
2.002010050E-1,4.340580463E0,2.871387079E-2,-8.772088051E0
2.023117860E-1,4.369294167E0,1.435693540E-2,-8.767302513E0
2.044225670E-1,4.383651257E0,4.785645287E-3,-8.767302513E0
2.065332960E-1,4.383651257E0,4.785645287E-3,-8.752944946E0
2.086440780E-1,4.383651257E0,1.435693540E-2,-8.719446182E0
2.107548590E-1,4.402793884E0,-4.785645287E-3,-8.714659691E0
2.128656400E-1,4.412364960E0,-1.914258115E-2,-8.685946465E0
2.149764210E-1,4.412364960E0,0.000000000E0,-8.652446747E0
2.170872030E-1,4.412364960E0,-1.435693540E-2,-8.642875671E0
2.191979840E-1,4.436293125E0,-1.914258115E-2,-8.638090134E0
2.213087650E-1,4.417150497E0,-3.349951655E-2,-8.638090134E0
2.234195460E-1,4.412364960E0,-3.828516230E-2,-8.618947029E0
2.255303280E-1,4.436293125E0,-4.307080805E-2,-8.633303642E0
2.276411090E-1,4.445864677E0,-3.828516230E-2,-8.633303642E0
2.297518900E-1,4.450650215E0,-4.785645381E-2,-8.633303642E0
2.318626710E-1,4.450650215E0,-5.264209956E-2,-8.614161491E0
2.339734530E-1,4.455435753E0,-3.828516230E-2,-8.657232285E0
2.360842340E-1,4.474578381E0,-2.871387079E-2,-8.662017822E0
2.381950150E-1,4.469792843E0,-2.871387079E-2,-8.657232285E0
2.403057960E-1,4.474578381E0,-9.571290575E-3,-8.666803360E0
2.424165780E-1,4.484149456E0,-2.871387079E-2,-8.705088615E0
2.445273590E-1,4.484149456E0,-9.571290575E-3,-8.700303078E0
2.466381400E-1,4.488935471E0,-1.435693540E-2,-8.724231720E0
2.487489210E-1,4.465006828E0,1.435693540E-2,-8.729017258E0
2.508597030E-1,4.479363918E0,9.571290575E-3,-8.724231720E0
2.529704320E-1,4.469792843E0,1.914258115E-2,-8.709874153E0
2.550812650E-1,4.460221291E0,1.435693540E-2,-8.690732002E0
2.571920460E-1,4.450650215E0,1.435693540E-2,-8.695517540E0
2.593027760E-1,4.445864677E0,4.785645287E-3,-8.666803360E0
2.614135570E-1,4.431507587E0,1.435693540E-2,-8.666803360E0
2.635243380E-1,4.426722050E0,4.785645287E-3,-8.676374435E0
2.656351190E-1,4.412364960E0,1.914258115E-2,-8.671588898E0
2.677459530E-1,4.398007870E0,9.571290575E-3,-8.657232285E0
2.698566820E-1,4.402793884E0,1.435693540E-2,-8.671588898E0
2.719674630E-1,4.378865242E0,1.435693540E-2,-8.657232285E0
2.740782440E-1,4.369294167E0,1.435693540E-2,-8.690732002E0
2.761890260E-1,4.364508629E0,-9.571290575E-3,-8.695517540E0
2.782998070E-1,4.345366001E0,-1.435693540E-2,-8.719446182E0
2.804105880E-1,4.345366001E0,-1.435693540E-2,-8.724231720E0
2.825213690E-1,4.345366001E0,0.000000000E0,-8.743373871E0
2.846321510E-1,4.335794449E0,0.000000000E0,-8.762516975E0
2.867429320E-1,4.321437836E0,1.435693540E-2,-8.767302513E0
2.888537130E-1,4.311866283E0,2.871387079E-2,-8.748159409E0
2.909644940E-1,4.307080746E0,2.871387079E-2,-8.762516975E0
2.930752760E-1,4.316651821E0,3.349951655E-2,-8.767302513E0
2.951860570E-1,4.292723656E0,3.349951655E-2,-8.733802795E0
2.972968380E-1,4.297509670E0,4.785645381E-2,-8.743373871E0
2.994076190E-1,4.283152580E0,5.742774159E-2,-8.729017258E0
3.015184010E-1,4.273581028E0,5.264209956E-2,-8.714659691E0
3.036291820E-1,4.268795490E0,5.742774159E-2,-8.719446182E0
3.057399630E-1,4.254438877E0,6.221338734E-2,-8.719446182E0
3.078506920E-1,4.244867325E0,5.264209956E-2,-8.690732002E0
3.099614730E-1,4.264009953E0,6.699903309E-2,-8.695517540E0
3.120722550E-1,4.259224415E0,4.785645381E-2,-8.666803360E0
3.141830360E-1,4.249652863E0,5.742774159E-2,-8.662017822E0
3.162938170E-1,4.254438877E0,4.785645381E-2,-8.657232285E0
3.184045980E-1,4.249652863E0,3.828516230E-2,-8.652446747E0
3.205153800E-1,4.244867325E0,4.785645381E-2,-8.666803360E0
3.226261610E-1,4.240081787E0,4.307080805E-2,-8.652446747E0
3.247369420E-1,4.264009953E0,2.392822690E-2,-8.666803360E0
3.268477230E-1,4.249652863E0,3.828516230E-2,-8.642875671E0
3.289585050E-1,4.273581028E0,3.828516230E-2,-8.628518105E0
3.310692340E-1,4.268795490E0,2.871387079E-2,-8.662017822E0
3.331800670E-1,4.292723656E0,2.871387079E-2,-8.623732567E0
3.352908480E-1,4.292723656E0,3.828516230E-2,-8.647661209E0
3.374016300E-1,4.302295208E0,5.264209956E-2,-8.657232285E0
3.395124110E-1,4.307080746E0,5.264209956E-2,-8.690732002E0
3.416231920E-1,4.331008911E0,4.307080805E-2,-8.681160927E0
3.437339730E-1,4.340580463E0,5.742774159E-2,-8.700303078E0
3.458447550E-1,4.340580463E0,5.264209956E-2,-8.709874153E0
3.479555360E-1,4.345366001E0,5.742774159E-2,-8.709874153E0
3.500663170E-1,4.364508629E0,4.785645381E-2,-8.729017258E0
3.521770980E-1,4.378865242E0,2.392822690E-2,-8.752944946E0
3.542878800E-1,4.383651257E0,3.349951655E-2,-8.752944946E0
3.563986610E-1,4.369294167E0,4.307080805E-2,-8.752944946E0
3.585093900E-1,4.388436794E0,2.392822690E-2,-8.757730484E0
3.606201710E-1,4.383651257E0,1.435693540E-2,-8.757730484E0
3.627309530E-1,4.378865242E0,0.000000000E0,-8.738588333E0
3.648417340E-1,4.383651257E0,4.785645287E-3,-8.752944946E0
3.669525150E-1,4.388436794E0,-4.785645287E-3,-8.733802795E0
3.690632960E-1,4.383651257E0,0.000000000E0,-8.690732002E0
3.711740780E-1,4.378865242E0,-3.828516230E-2,-8.690732002E0
3.732848590E-1,4.398007870E0,-2.871387079E-2,-8.676374435E0
3.753956400E-1,4.402793884E0,-4.307080805E-2,-8.652446747E0
3.775064210E-1,4.426722050E0,-7.657032460E-2,-8.647661209E0
3.796172030E-1,4.407579422E0,-6.699903309E-2,-8.628518105E0
3.817279840E-1,4.421936035E0,-7.657032460E-2,-8.642875671E0
3.838387650E-1,4.441078663E0,-9.571290761E-2,-8.633303642E0
3.859495460E-1,4.450650215E0,-9.571290761E-2,-8.642875671E0
3.880603280E-1,4.445864677E0,-9.571290761E-2,-8.676374435E0
3.901711090E-1,4.450650215E0,-1.148554832E-1,-8.681160927E0
3.922818900E-1,4.436293125E0,-1.100698411E-1,-8.690732002E0
3.943926710E-1,4.460221291E0,-1.052841991E-1,-8.714659691E0
3.965034530E-1,4.450650215E0,-1.052841991E-1,-8.719446182E0
3.986142340E-1,4.455435753E0,-9.571290761E-2,-8.729017258E0
4.007250150E-1,4.445864677E0,-1.244267747E-1,-8.748159409E0
4.028357960E-1,4.445864677E0,-1.148554832E-1,-8.767302513E0
4.049465780E-1,4.441078663E0,-1.052841991E-1,-8.762516975E0
4.070573590E-1,4.421936035E0,-9.571290761E-2,-8.776873589E0
4.091680880E-1,4.421936035E0,-1.004985496E-1,-8.772088051E0
4.112788690E-1,4.412364960E0,-9.092725813E-2,-8.796015739E0
4.133896510E-1,4.393222332E0,-8.614161611E-2,-8.791230202E0
4.155004320E-1,4.393222332E0,-8.614161611E-2,-8.767302513E0
4.176112130E-1,4.369294167E0,-8.135596663E-2,-8.772088051E0
4.197219940E-1,4.335794449E0,-7.178468257E-2,-8.752944946E0
4.218327760E-1,4.354937077E0,-7.657032460E-2,-8.757730484E0
4.239435570E-1,4.326223373E0,-7.178468257E-2,-8.738588333E0
4.260543380E-1,4.331008911E0,-7.657032460E-2,-8.738588333E0
4.281651190E-1,4.321437836E0,-5.742774159E-2,-8.719446182E0
4.302759010E-1,4.321437836E0,-6.221338734E-2,-8.724231720E0
4.323866820E-1,4.335794449E0,-5.264209956E-2,-8.690732002E0
4.344974630E-1,4.335794449E0,-5.264209956E-2,-8.700303078E0
4.366082440E-1,4.321437836E0,-5.742774159E-2,-8.695517540E0
4.387190260E-1,4.340580463E0,-5.742774159E-2,-8.676374435E0
4.408298070E-1,4.335794449E0,-5.264209956E-2,-8.695517540E0
4.429405880E-1,4.335794449E0,-4.307080805E-2,-8.681160927E0
4.450513690E-1,4.350151539E0,-4.785645381E-2,-8.695517540E0
4.471621510E-1,4.335794449E0,-4.785645381E-2,-8.685946465E0
4.492729320E-1,4.350151539E0,-4.307080805E-2,-8.700303078E0
4.513837130E-1,4.350151539E0,-4.307080805E-2,-8.681160927E0
4.534944940E-1,4.364508629E0,-4.785645381E-2,-8.666803360E0
4.556052760E-1,4.350151539E0,-4.785645381E-2,-8.652446747E0
4.577160570E-1,4.350151539E0,-4.307080805E-2,-8.638090134E0
4.598267860E-1,4.350151539E0,-3.828516230E-2,-8.647661209E0
4.619375670E-1,4.378865242E0,-5.264209956E-2,-8.623732567E0
4.640483480E-1,4.378865242E0,-3.349951655E-2,-8.614161491E0
4.661591300E-1,4.383651257E0,-4.785645381E-2,-8.628518105E0
4.682699110E-1,4.407579422E0,-4.307080805E-2,-8.614161491E0
4.703806920E-1,4.421936035E0,-2.871387079E-2,-8.590232849E0
4.724914730E-1,4.431507587E0,-1.435693540E-2,-8.575876236E0
4.746022550E-1,4.445864677E0,0.000000000E0,-8.595019341E0
4.767130360E-1,4.465006828E0,-9.571290575E-3,-8.604590416E0
4.788238170E-1,4.493721008E0,9.571290575E-3,-8.590232849E0
4.809345980E-1,4.503292084E0,1.435693540E-2,-8.580661774E0
4.830453800E-1,4.536791801E0,2.871387079E-2,-8.580661774E0
4.851561610E-1,4.551148891E0,2.871387079E-2,-8.599804878E0
4.872669420E-1,4.565505505E0,3.349951655E-2,-8.595019341E0
4.893777230E-1,4.579862595E0,3.828516230E-2,-8.599804878E0
4.914885050E-1,4.594219685E0,3.349951655E-2,-8.642875671E0
4.935992860E-1,4.622933388E0,2.871387079E-2,-8.647661209E0
4.957100670E-1,4.637290478E0,1.435693540E-2,-8.662017822E0
4.978208480E-1,4.637290478E0,1.914258115E-2,-8.657232285E0
4.999316300E-1,4.651647091E0,2.392822690E-2,-8.662017822E0
5.020424110E-1,4.656432629E0,-4.785645287E-3,-8.662017822E0
5.041523070E-1,4.670789719E0,4.785645287E-3,-8.666803360E0
5.062639730E-1,4.680361271E0,-9.571290575E-3,-8.671588898E0
5.083747550E-1,4.689932346E0,-1.914258115E-2,-8.642875671E0
5.104855360E-1,4.694717884E0,-1.914258115E-2,-8.642875671E0
5.125962650E-1,4.704289436E0,-1.914258115E-2,-8.647661209E0
5.147070460E-1,4.718646049E0,-3.349951655E-2,-8.647661209E0
5.168178280E-1,4.747360229E0,-3.349951655E-2,-8.604590416E0
5.189286090E-1,4.756931305E0,-3.349951655E-2,-8.604590416E0
5.210393900E-1,4.785645485E0,-3.828516230E-2,-8.628518105E0
5.231501710E-1,4.800002098E0,-1.435693540E-2,-8.604590416E0
5.252609530E-1,4.809573650E0,-9.571290575E-3,-8.618947029E0
5.273717340E-1,4.843072891E0,0.000000000E0,-8.652446747E0
5.294825150E-1,4.857429981E0,0.000000000E0,-8.671588898E0
5.315932960E-1,4.905286312E0,0.000000000E0,-8.700303078E0
5.337040780E-1,4.938786030E0,-9.571290575E-3,-8.709874153E0
5.358148590E-1,4.953142643E0,-1.435693540E-2,-8.757730484E0
5.379256400E-1,4.977071285E0,0.000000000E0,-8.772088051E0
5.400364210E-1,4.972285271E0,-1.435693540E-2,-8.786444664E0
5.421472030E-1,4.981856823E0,-9.571290575E-3,-8.786444664E0
5.442579840E-1,4.972285271E0,-4.785645287E-3,-8.800801277E0
5.463687650E-1,4.957928658E0,1.435693540E-2,-8.791230202E0
5.484795460E-1,4.934000492E0,4.785645287E-3,-8.800801277E0
5.505903280E-1,4.895715237E0,0.000000000E0,-8.796015739E0
5.527011090E-1,4.852644444E0,-4.785645287E-3,-8.776873589E0
5.548118900E-1,4.823930264E0,1.914258115E-2,-8.738588333E0
5.569226710E-1,4.795216560E0,2.871387079E-2,-8.681160927E0
5.590334530E-1,4.771288395E0,1.435693540E-2,-8.652446747E0
5.611442340E-1,4.756931305E0,9.571290575E-3,-8.614161491E0
5.632549630E-1,4.723432064E0,4.785645287E-3,-8.604590416E0
5.653657440E-1,4.709074974E0,-2.392822690E-2,-8.590232849E0
5.674765260E-1,4.685146809E0,0.000000000E0,-8.566305161E0
5.695873070E-1,4.680361271E0,0.000000000E0,-8.575876236E0
5.716980880E-1,4.689932346E0,-4.785645287E-3,-8.595019341E0
5.738088690E-1,4.680361271E0,1.435693540E-2,-8.623732567E0
5.759196510E-1,4.675575256E0,2.392822690E-2,-8.633303642E0
5.780304320E-1,4.661218643E0,5.264209956E-2,-8.666803360E0
5.801412130E-1,4.651647091E0,6.221338734E-2,-8.700303078E0
5.822519940E-1,4.637290478E0,4.307080805E-2,-8.714659691E0
5.843627760E-1,4.618147850E0,6.221338734E-2,-8.772088051E0
5.864735570E-1,4.618147850E0,5.264209956E-2,-8.796015739E0
5.885843380E-1,4.622933388E0,3.828516230E-2,-8.848658562E0
5.906951190E-1,4.599005222E0,3.349951655E-2,-8.882157326E0
5.928059010E-1,4.555934429E0,2.392822690E-2,-8.896514893E0
5.949166820E-1,4.517649174E0,9.571290575E-3,-8.824729919E0
5.970274630E-1,4.460221291E0,-1.914258115E-2,-8.748159409E0
5.991382440E-1,4.421936035E0,-2.392822690E-2,-8.633303642E0
6.012490260E-1,4.378865242E0,-4.307080805E-2,-8.532805443E0
6.033598070E-1,4.335794449E0,-3.349951655E-2,-8.446663857E0
6.054705880E-1,4.278367043E0,-5.264209956E-2,-8.374878883E0
6.075813690E-1,4.240081787E0,-3.828516230E-2,-8.355736732E0
6.096920980E-1,4.211368084E0,-6.221338734E-2,-8.288737297E0
6.118029320E-1,4.206582069E0,-5.264209956E-2,-8.279166222E0
6.139136610E-1,4.187439442E0,-7.178468257E-2,-8.288737297E0
6.160244420E-1,4.177868366E0,-4.307080805E-2,-8.303094864E0
6.181352230E-1,4.192225456E0,-4.785645381E-2,-8.370093346E0
6.202460050E-1,4.211368084E0,-6.699903309E-2,-8.432307243E0
6.223567860E-1,4.225724697E0,-8.135596663E-2,-8.494520187E0
6.244675670E-1,4.235296249E0,-8.614161611E-2,-8.571090698E0
6.265783480E-1,4.235296249E0,-9.092725813E-2,-8.647661209E0
6.286891300E-1,4.249652863E0,-9.571290761E-2,-8.719446182E0
6.307999110E-1,4.259224415E0,-9.571290761E-2,-8.767302513E0
6.329106920E-1,4.268795490E0,-8.135596663E-2,-8.786444664E0
6.350214730E-1,4.283152580E0,-9.092725813E-2,-8.815158844E0
6.371322550E-1,4.264009953E0,-7.657032460E-2,-8.829515457E0
6.392430360E-1,4.268795490E0,-8.135596663E-2,-8.815158844E0
6.413538170E-1,4.268795490E0,-8.135596663E-2,-8.762516975E0
6.434645980E-1,4.273581028E0,-5.742774159E-2,-8.762516975E0
6.455753800E-1,4.259224415E0,-6.699903309E-2,-8.700303078E0
6.476861610E-1,4.249652863E0,-7.657032460E-2,-8.676374435E0
6.497969420E-1,4.230510235E0,-8.614161611E-2,-8.628518105E0
6.519077230E-1,4.220939159E0,-7.657032460E-2,-8.599804878E0
6.540185050E-1,4.216153622E0,-1.052841991E-1,-8.566305161E0
6.561292860E-1,4.211368084E0,-1.196411327E-1,-8.551948547E0
6.582400670E-1,4.225724697E0,-1.435693651E-1,-8.561519623E0
6.603507960E-1,4.220939159E0,-1.435693651E-1,-8.590232849E0
6.624615780E-1,4.235296249E0,-1.818545163E-1,-8.628518105E0
6.645723590E-1,4.230510235E0,-1.962114573E-1,-8.647661209E0
6.666831400E-1,4.230510235E0,-1.914258152E-1,-8.676374435E0
6.687939210E-1,4.211368084E0,-2.057827413E-1,-8.685946465E0
6.709047030E-1,4.225724697E0,-2.392822653E-1,-8.695517540E0
6.730154840E-1,4.220939159E0,-2.488535494E-1,-8.705088615E0
6.751262650E-1,4.192225456E0,-2.536391914E-1,-8.714659691E0
6.772370460E-1,4.201796532E0,-2.727817893E-1,-8.705088615E0
6.793478280E-1,4.197010994E0,-2.632105052E-1,-8.657232285E0
6.814586090E-1,4.206582069E0,-2.871387303E-1,-8.647661209E0
6.835693900E-1,4.225724697E0,-3.014956415E-1,-8.647661209E0
6.856801710E-1,4.254438877E0,-3.014956415E-1,-8.638090134E0
6.877909530E-1,4.273581028E0,-3.062812984E-1,-8.633303642E0
6.899017340E-1,4.302295208E0,-3.158525825E-1,-8.618947029E0
6.920125150E-1,4.331008911E0,-3.062812984E-1,-8.604590416E0
6.941232960E-1,4.335794449E0,-3.110669553E-1,-8.609375954E0
6.962340780E-1,4.388436794E0,-3.062812984E-1,-8.604590416E0
6.983448590E-1,4.412364960E0,-3.014956415E-1,-8.590232849E0
7.004556400E-1,4.465006828E0,-3.158525825E-1,-8.585447311E0
7.025664210E-1,4.479363918E0,-3.254238665E-1,-8.618947029E0
7.046772030E-1,4.522434711E0,-3.206382394E-1,-8.638090134E0
7.067879840E-1,4.560719967E0,-3.110669553E-1,-8.657232285E0
7.088987650E-1,4.579862595E0,-2.967100143E-1,-8.690732002E0
7.110094940E-1,4.594219685E0,-3.014956415E-1,-8.724231720E0
7.131202760E-1,4.603790760E0,-2.967100143E-1,-8.748159409E0
7.152310570E-1,4.594219685E0,-3.062812984E-1,-8.781659126E0
7.173418380E-1,4.599005222E0,-3.014956415E-1,-8.776873589E0
7.194526190E-1,4.594219685E0,-2.823530734E-1,-8.786444664E0
7.215634010E-1,4.575077057E0,-2.727817893E-1,-8.772088051E0
7.236741820E-1,4.546362877E0,-2.488535494E-1,-8.800801277E0
7.257849630E-1,4.508078098E0,-2.440679073E-1,-8.800801277E0
7.278957440E-1,4.484149456E0,-2.009970993E-1,-8.800801277E0
7.300064730E-1,4.460221291E0,-1.866401732E-1,-8.805587769E0
7.321173070E-1,4.407579422E0,-1.722832322E-1,-8.791230202E0
7.342280880E-1,4.364508629E0,-1.483550072E-1,-8.805587769E0
7.363388690E-1,4.335794449E0,-1.100698411E-1,-8.819944382E0
7.384496510E-1,4.335794449E0,-1.004985496E-1,-8.810373306E0
7.405604320E-1,4.297509670E0,-7.178468257E-2,-8.805587769E0
7.426712130E-1,4.264009953E0,-5.742774159E-2,-8.829515457E0
7.447819940E-1,4.244867325E0,-2.871387079E-2,-8.834300995E0
7.468927760E-1,4.225724697E0,-9.571290575E-3,-8.829515457E0
7.490035570E-1,4.225724697E0,2.871387079E-2,-8.839086533E0
7.511143380E-1,4.216153622E0,4.307080805E-2,-8.819944382E0
7.532251190E-1,4.206582069E0,5.742774159E-2,-8.819944382E0
7.553359010E-1,4.235296249E0,9.571290761E-2,-8.834300995E0
7.574466820E-1,4.235296249E0,1.196411327E-1,-8.810373306E0
7.595574630E-1,4.225724697E0,1.339980662E-1,-8.791230202E0
7.616681920E-1,4.254438877E0,1.531406492E-1,-8.772088051E0
7.637789730E-1,4.254438877E0,1.818545163E-1,-8.757730484E0
7.658897550E-1,4.273581028E0,1.818545163E-1,-8.729017258E0
7.680005360E-1,4.292723656E0,2.105683982E-1,-8.714659691E0
7.701113170E-1,4.302295208E0,2.057827413E-1,-8.685946465E0
7.722220980E-1,4.335794449E0,2.297109663E-1,-8.662017822E0
7.743328800E-1,4.359723091E0,2.440679073E-1,-8.657232285E0
7.764436610E-1,4.354937077E0,2.632105052E-1,-8.623732567E0
7.785544420E-1,4.364508629E0,2.823530734E-1,-8.609375954E0
7.806652230E-1,4.378865242E0,2.919243574E-1,-8.623732567E0
7.827760050E-1,4.364508629E0,2.919243574E-1,-8.585447311E0
7.848867860E-1,4.378865242E0,3.110669553E-1,-8.585447311E0
7.869975670E-1,4.350151539E0,3.397808075E-1,-8.595019341E0
7.891083480E-1,4.364508629E0,3.637090325E-1,-8.575876236E0
7.912191300E-1,4.345366001E0,3.684946895E-1,-8.566305161E0
7.933299110E-1,4.331008911E0,3.972085714E-1,-8.537590981E0
7.954406920E-1,4.331008911E0,4.019941986E-1,-8.551948547E0
7.975514730E-1,4.331008911E0,4.307080805E-1,-8.551948547E0
7.996622550E-1,4.311866283E0,4.498506486E-1,-8.556734085E0
8.017730360E-1,4.307080746E0,4.785645306E-1,-8.566305161E0
8.038838170E-1,4.307080746E0,4.833501875E-1,-8.575876236E0
8.059945980E-1,4.292723656E0,4.977070987E-1,-8.599804878E0
8.081053280E-1,4.292723656E0,4.833501875E-1,-8.623732567E0
8.102161090E-1,4.259224415E0,4.833501875E-1,-8.609375954E0
8.123268900E-1,4.264009953E0,4.642075896E-1,-8.623732567E0
8.144377230E-1,4.254438877E0,4.498506486E-1,-8.604590416E0
8.165484530E-1,4.254438877E0,4.450650215E-1,-8.638090134E0
8.186592340E-1,4.235296249E0,3.924229145E-1,-8.623732567E0
8.207700150E-1,4.230510235E0,3.828516304E-1,-8.647661209E0
8.228807960E-1,4.225724697E0,3.589234054E-1,-8.657232285E0
8.249915780E-1,4.206582069E0,3.493520916E-1,-8.666803360E0
8.271023590E-1,4.235296249E0,3.302095234E-1,-8.671588898E0
8.292131400E-1,4.216153622E0,3.349951804E-1,-8.685946465E0
8.313239210E-1,4.211368084E0,3.158525825E-1,-8.671588898E0
8.334347030E-1,4.216153622E0,2.871387303E-1,-8.700303078E0
8.355454840E-1,4.244867325E0,2.823530734E-1,-8.690732002E0
8.376562650E-1,4.264009953E0,2.775674164E-1,-8.695517540E0
8.397670460E-1,4.273581028E0,2.823530734E-1,-8.714659691E0
8.418778280E-1,4.297509670E0,2.823530734E-1,-8.714659691E0
8.439886090E-1,4.321437836E0,2.775674164E-1,-8.705088615E0
8.460993900E-1,4.331008911E0,2.679961324E-1,-8.714659691E0
8.482101710E-1,4.359723091E0,2.727817893E-1,-8.719446182E0
8.503209530E-1,4.359723091E0,2.536391914E-1,-8.714659691E0
8.524317340E-1,4.388436794E0,2.536391914E-1,-8.705088615E0
8.545425150E-1,4.407579422E0,2.488535494E-1,-8.695517540E0
8.566532960E-1,4.436293125E0,2.344966233E-1,-8.695517540E0
8.587640260E-1,4.445864677E0,2.344966233E-1,-8.676374435E0
8.608748070E-1,4.474578381E0,2.105683982E-1,-8.690732002E0
8.629856400E-1,4.445864677E0,2.057827413E-1,-8.700303078E0
8.650963690E-1,4.426722050E0,1.866401732E-1,-8.709874153E0
8.672071510E-1,4.407579422E0,1.770688742E-1,-8.690732002E0
8.693179320E-1,4.421936035E0,1.531406492E-1,-8.690732002E0
8.714287130E-1,4.407579422E0,1.483550072E-1,-8.685946465E0
8.735394940E-1,4.407579422E0,1.435693651E-1,-8.700303078E0
8.756502760E-1,4.383651257E0,1.292124242E-1,-8.685946465E0
8.777610570E-1,4.340580463E0,1.244267747E-1,-8.666803360E0
8.798718380E-1,4.326223373E0,1.100698411E-1,-8.666803360E0
8.819826190E-1,4.273581028E0,1.052841991E-1,-8.671588898E0
8.840934010E-1,4.235296249E0,1.100698411E-1,-8.676374435E0
8.862041820E-1,4.177868366E0,1.004985496E-1,-8.657232285E0
8.883149630E-1,4.130012035E0,1.100698411E-1,-8.690732002E0
8.904257440E-1,4.067798615E0,1.004985496E-1,-8.729017258E0
8.925365260E-1,4.039084435E0,9.571290761E-2,-8.729017258E0
8.946473070E-1,3.986442566E0,1.052841991E-1,-8.752944946E0
8.967580880E-1,3.952943087E0,1.052841991E-1,-8.752944946E0
8.988688690E-1,3.924229145E0,8.614161611E-2,-8.781659126E0
9.009796510E-1,3.914657831E0,8.135596663E-2,-8.791230202E0
9.030904320E-1,3.890729666E0,8.135596663E-2,-8.819944382E0
9.052011610E-1,3.857230186E0,6.699903309E-2,-8.829515457E0
9.073119940E-1,3.842873096E0,7.178468257E-2,-8.829515457E0
9.094227230E-1,3.838087559E0,6.699903309E-2,-8.839086533E0
9.115335050E-1,3.823730469E0,8.135596663E-2,-8.863015175E0
9.136442860E-1,3.799802303E0,9.092725813E-2,-8.848658562E0
9.157550670E-1,3.785445452E0,9.092725813E-2,-8.882157326E0
9.178658480E-1,3.785445452E0,9.571290761E-2,-8.843872070E0
9.199766300E-1,3.785445452E0,9.092725813E-2,-8.834300995E0
9.220874110E-1,3.775874138E0,9.092725813E-2,-8.829515457E0
9.241981920E-1,3.795016766E0,8.135596663E-2,-8.815158844E0
9.263089730E-1,3.804588079E0,1.004985496E-1,-8.796015739E0
9.284197550E-1,3.828516245E0,9.092725813E-2,-8.796015739E0
9.305305360E-1,3.847658873E0,1.100698411E-1,-8.800801277E0
9.326413170E-1,3.862015724E0,1.148554832E-1,-8.796015739E0
9.347520980E-1,3.866801500E0,1.004985496E-1,-8.800801277E0
9.368628800E-1,3.914657831E0,8.614161611E-2,-8.796015739E0
9.389736610E-1,3.914657831E0,9.092725813E-2,-8.800801277E0
9.410844420E-1,3.943371773E0,9.092725813E-2,-8.781659126E0
9.431952230E-1,3.962514400E0,7.178468257E-2,-8.757730484E0
9.453060050E-1,3.996013880E0,7.657032460E-2,-8.738588333E0
9.474167860E-1,4.010370731E0,6.699903309E-2,-8.709874153E0
9.495275670E-1,4.072584152E0,7.178468257E-2,-8.700303078E0
9.516383480E-1,4.067798615E0,8.614161611E-2,-8.628518105E0
9.537491300E-1,4.086941242E0,6.221338734E-2,-8.595019341E0
9.558599110E-1,4.101297855E0,7.178468257E-2,-8.580661774E0
9.579706920E-1,4.130012035E0,6.221338734E-2,-8.542376518E0
9.600814730E-1,4.144368649E0,6.699903309E-2,-8.518448830E0
9.621922030E-1,4.173082829E0,7.178468257E-2,-8.518448830E0
9.643029840E-1,4.177868366E0,6.221338734E-2,-8.513663292E0
9.664137650E-1,4.197010994E0,7.178468257E-2,-8.499305725E0
9.685245460E-1,4.201796532E0,9.092725813E-2,-8.508877754E0
9.706353280E-1,4.211368084E0,8.135596663E-2,-8.537590981E0
9.727461090E-1,4.235296249E0,7.657032460E-2,-8.504091263E0
9.748568900E-1,4.244867325E0,1.004985496E-1,-8.532805443E0
9.769676710E-1,4.264009953E0,1.148554832E-1,-8.575876236E0
9.790784530E-1,4.244867325E0,1.052841991E-1,-8.604590416E0
9.811892340E-1,4.259224415E0,9.571290761E-2,-8.604590416E0
9.833000150E-1,4.220939159E0,9.571290761E-2,-8.642875671E0
9.854107960E-1,4.197010994E0,1.004985496E-1,-8.676374435E0
9.875215780E-1,4.216153622E0,8.614161611E-2,-8.685946465E0
9.896323590E-1,4.177868366E0,9.571290761E-2,-8.709874153E0
9.917431400E-1,4.173082829E0,9.092725813E-2,-8.714659691E0
9.938539210E-1,4.158725739E0,8.614161611E-2,-8.738588333E0
9.959647030E-1,4.134797573E0,8.614161611E-2,-8.724231720E0
9.980754840E-1,4.110869408E0,9.092725813E-2,-8.743373871E0
1.000186265E0,4.082155228E0,7.178468257E-2,-8.752944946E0
1.002297046E0,4.082155228E0,8.135596663E-2,-8.757730484E0
1.004407828E0,4.053441525E0,8.614161611E-2,-8.743373871E0
1.006518609E0,4.019941807E0,7.178468257E-2,-8.752944946E0
1.008629338E0,3.981656790E0,6.221338734E-2,-8.767302513E0
1.010740171E0,3.962514400E0,4.307080805E-2,-8.757730484E0
1.012850901E0,3.952943087E0,4.785645381E-2,-8.762516975E0
1.014961682E0,3.933800459E0,2.871387079E-2,-8.772088051E0
1.017072463E0,3.914657831E0,4.785645381E-2,-8.786444664E0
1.019183244E0,3.924229145E0,5.264209956E-2,-8.762516975E0
1.021294026E0,3.895515203E0,5.742774159E-2,-8.781659126E0
1.023404807E0,3.890729666E0,4.785645381E-2,-8.786444664E0
1.025515588E0,3.914657831E0,5.264209956E-2,-8.791230202E0
1.027626369E0,3.876372576E0,3.828516230E-2,-8.815158844E0
1.029737151E0,3.895515203E0,1.914258115E-2,-8.800801277E0
1.031847932E0,3.876372576E0,-9.571290575E-3,-8.819944382E0
1.033958713E0,3.871587038E0,-3.349951655E-2,-8.834300995E0
1.036069494E0,3.895515203E0,-3.828516230E-2,-8.843872070E0
1.038180276E0,3.871587038E0,-5.742774159E-2,-8.819944382E0
1.040291057E0,3.885943890E0,-6.699903309E-2,-8.858229637E0
1.042401838E0,3.890729666E0,-9.092725813E-2,-8.848658562E0
1.044512619E0,3.885943890E0,-1.052841991E-1,-8.834300995E0
1.046623401E0,3.895515203E0,-1.292124242E-1,-8.863015175E0
1.048734182E0,3.871587038E0,-1.292124242E-1,-8.858229637E0
1.050844963E0,3.871587038E0,-1.196411327E-1,-8.858229637E0
1.052955744E0,3.833301783E0,-1.339980662E-1,-8.863015175E0
1.055066526E0,3.818944931E0,-1.579262912E-1,-8.858229637E0
1.057177255E0,3.799802303E0,-1.579262912E-1,-8.872586250E0
1.059288036E0,3.809373617E0,-1.818545163E-1,-8.858229637E0
1.061398817E0,3.766302824E0,-1.579262912E-1,-8.863015175E0
1.063509598E0,3.766302824E0,-1.579262912E-1,-8.858229637E0
1.065620380E0,3.756731510E0,-1.579262912E-1,-8.848658562E0
1.067731161E0,3.732803345E0,-1.579262912E-1,-8.829515457E0
1.069841942E0,3.728017569E0,-1.435693651E-1,-8.815158844E0
1.071952723E0,3.751945972E0,-1.292124242E-1,-8.805587769E0
1.074063505E0,3.756731510E0,-1.387837082E-1,-8.757730484E0
1.076174286E0,3.799802303E0,-1.339980662E-1,-8.733802795E0
1.078285067E0,3.833301783E0,-1.292124242E-1,-8.714659691E0
1.080395848E0,3.866801500E0,-1.292124242E-1,-8.724231720E0
1.082506630E0,3.895515203E0,-1.339980662E-1,-8.709874153E0
1.084617411E0,3.924229145E0,-1.483550072E-1,-8.705088615E0
1.086728192E0,3.962514400E0,-1.483550072E-1,-8.695517540E0
1.088838973E0,3.996013880E0,-1.531406492E-1,-8.705088615E0
1.090949755E0,4.024727821E0,-1.292124242E-1,-8.690732002E0
1.093060536E0,4.034298897E0,-1.531406492E-1,-8.666803360E0
1.095171317E0,4.043870449E0,-1.387837082E-1,-8.647661209E0
1.097282098E0,4.053441525E0,-1.148554832E-1,-8.628518105E0
1.099392880E0,4.086941242E0,-1.292124242E-1,-8.628518105E0
1.101503661E0,4.101297855E0,-1.387837082E-1,-8.599804878E0
1.103614442E0,4.096512318E0,-1.244267747E-1,-8.623732567E0
1.105725171E0,4.101297855E0,-1.292124242E-1,-8.618947029E0
1.107835953E0,4.115654945E0,-1.148554832E-1,-8.618947029E0
1.109946734E0,4.130012035E0,-1.100698411E-1,-8.638090134E0
1.112057515E0,4.139583111E0,-1.052841991E-1,-8.633303642E0
1.114168296E0,4.134797573E0,-1.148554832E-1,-8.647661209E0
1.116279078E0,4.139583111E0,-1.052841991E-1,-8.623732567E0
1.118389859E0,4.139583111E0,-1.004985496E-1,-8.628518105E0
1.120500640E0,4.134797573E0,-1.004985496E-1,-8.628518105E0
1.122611421E0,4.139583111E0,-9.092725813E-2,-8.614161491E0
1.124722203E0,4.115654945E0,-8.614161611E-2,-8.628518105E0
1.126832984E0,4.101297855E0,-8.135596663E-2,-8.638090134E0
1.128943765E0,4.091726780E0,-1.004985496E-1,-8.599804878E0
1.131054546E0,4.072584152E0,-1.052841991E-1,-8.609375954E0
1.133165328E0,4.058227062E0,-1.004985496E-1,-8.585447311E0
1.135276109E0,4.067798615E0,-9.092725813E-2,-8.614161491E0
1.137386890E0,4.067798615E0,-8.614161611E-2,-8.609375954E0
1.139497671E0,4.086941242E0,-8.614161611E-2,-8.609375954E0
1.141608453E0,4.077369690E0,-1.052841991E-1,-8.618947029E0
1.143719234E0,4.101297855E0,-1.100698411E-1,-8.657232285E0
1.145830015E0,4.115654945E0,-1.004985496E-1,-8.657232285E0
1.147940796E0,4.153940201E0,-1.196411327E-1,-8.695517540E0
1.150051578E0,4.153940201E0,-1.531406492E-1,-8.729017258E0
1.152162307E0,4.149154663E0,-1.674975902E-1,-8.781659126E0
1.154273088E0,4.187439442E0,-1.866401732E-1,-8.810373306E0
1.156383869E0,4.182653904E0,-2.201396823E-1,-8.843872070E0
1.158494651E0,4.192225456E0,-2.440679073E-1,-8.867800713E0
1.160605432E0,4.177868366E0,-2.823530734E-1,-8.877371788E0
1.162716213E0,4.173082829E0,-3.110669553E-1,-8.906085968E0
1.164826994E0,4.168296814E0,-3.397808075E-1,-8.906085968E0
1.166937776E0,4.158725739E0,-3.684946895E-1,-8.930013657E0
1.169048557E0,4.158725739E0,-4.067798555E-1,-8.925228119E0
1.171159338E0,4.144368649E0,-4.402793646E-1,-8.886942863E0
1.173270119E0,4.139583111E0,-4.546363056E-1,-8.882157326E0
1.175380901E0,4.130012035E0,-4.929214716E-1,-8.877371788E0
1.177491682E0,4.101297855E0,-5.264210105E-1,-8.877371788E0
1.179602463E0,4.091726780E0,-5.551348329E-1,-8.843872070E0
1.181713244E0,4.096512318E0,-5.886343718E-1,-8.824729919E0
1.183824026E0,4.101297855E0,-6.317051649E-1,-8.815158844E0
1.185934807E0,4.077369690E0,-6.747759581E-1,-8.781659126E0
1.188045588E0,4.067798615E0,-7.034898400E-1,-8.796015739E0
1.190156369E0,4.053441525E0,-7.513462901E-1,-8.786444664E0
1.192267151E0,4.053441525E0,-7.752745152E-1,-8.776873589E0
1.194377932E0,4.067798615E0,-8.039883971E-1,-8.762516975E0
1.196488713E0,4.043870449E0,-8.566305041E-1,-8.791230202E0
1.198599494E0,4.043870449E0,-8.805587292E-1,-8.800801277E0
1.200710223E0,4.034298897E0,-9.236295223E-1,-8.839086533E0
1.202821057E0,4.019941807E0,-9.475577474E-1,-8.858229637E0
1.204931786E0,4.015156269E0,-9.858429432E-1,-8.877371788E0
1.207042567E0,4.000799656E0,-1.024128079E0,-8.891729355E0
1.209153348E0,3.991228104E0,-1.033699393E0,-8.915657043E0
1.211264130E0,3.962514400E0,-1.052842021E0,-8.920442581E0
1.213374911E0,3.962514400E0,-1.067198873E0,-8.925228119E0
1.215485692E0,3.938585997E0,-1.100698471E0,-8.930013657E0
1.217596473E0,3.909872293E0,-1.119840980E0,-8.920442581E0
1.219707255E0,3.890729666E0,-1.138983607E0,-8.910871506E0
1.221818036E0,3.857230186E0,-1.143769264E0,-8.882157326E0
1.223928817E0,3.862015724E0,-1.167697430E0,-8.886942863E0
1.226039598E0,3.838087559E0,-1.210768223E0,-8.882157326E0
1.228150380E0,3.818944931E0,-1.220339537E0,-8.858229637E0
1.230261161E0,3.814159393E0,-1.239482164E0,-8.863015175E0
1.232371942E0,3.814159393E0,-1.277767301E0,-8.853444099E0
1.234482723E0,3.823730469E0,-1.292124271E0,-8.848658562E0
1.236593505E0,3.823730469E0,-1.311266780E0,-8.848658562E0
1.238704286E0,3.833301783E0,-1.354337573E0,-8.858229637E0
1.240815067E0,3.823730469E0,-1.368694544E0,-8.863015175E0
1.242925848E0,3.828516245E0,-1.392622828E0,-8.882157326E0
1.245036630E0,3.828516245E0,-1.416550994E0,-8.863015175E0
1.247147411E0,3.809373617E0,-1.445264935E0,-8.858229637E0
1.249258192E0,3.818944931E0,-1.454836130E0,-8.867800713E0
1.251368973E0,3.818944931E0,-1.454836130E0,-8.853444099E0
1.253479755E0,3.809373617E0,-1.469193101E0,-8.843872070E0
1.255590484E0,3.814159393E0,-1.469193101E0,-8.824729919E0
1.257701265E0,3.809373617E0,-1.469193101E0,-8.781659126E0
1.259812046E0,3.833301783E0,-1.464407444E0,-8.791230202E0
1.261922828E0,3.828516245E0,-1.469193101E0,-8.772088051E0
1.264033609E0,3.847658873E0,-1.450050473E0,-8.752944946E0
1.266144390E0,3.862015724E0,-1.430907965E0,-8.743373871E0
1.268255171E0,3.862015724E0,-1.426122308E0,-8.743373871E0
1.270365901E0,3.862015724E0,-1.430907965E0,-8.719446182E0
1.272476734E0,3.866801500E0,-1.454836130E0,-8.743373871E0
1.274587515E0,3.857230186E0,-1.473978758E0,-8.738588333E0
1.276698296E0,3.857230186E0,-1.488335729E0,-8.757730484E0
1.278809078E0,3.866801500E0,-1.512263894E0,-8.781659126E0
1.280919859E0,3.866801500E0,-1.531406522E0,-8.815158844E0
1.283030640E0,3.862015724E0,-1.550549030E0,-8.819944382E0
1.285141421E0,3.876372576E0,-1.569691658E0,-8.867800713E0
1.287252203E0,3.857230186E0,-1.617548108E0,-8.877371788E0
1.289362984E0,3.866801500E0,-1.622333765E0,-8.906085968E0
1.291473765E0,3.862015724E0,-1.641476393E0,-8.915657043E0
1.293584546E0,3.847658873E0,-1.674975872E0,-8.925228119E0
1.295695328E0,3.818944931E0,-1.684547186E0,-8.939585686E0
1.297806057E0,3.814159393E0,-1.684547186E0,-8.925228119E0
1.299916838E0,3.766302824E0,-1.689332843E0,-8.915657043E0
1.302027671E0,3.747160196E0,-1.694118381E0,-8.886942863E0
1.304138401E0,3.747160196E0,-1.718046665E0,-8.843872070E0
1.306249182E0,3.747160196E0,-1.722832322E0,-8.762516975E0
1.308359963E0,3.751945972E0,-1.708475351E0,-8.748159409E0
1.310470744E0,3.742374659E0,-1.727617979E0,-8.781659126E0
1.312581526E0,3.742374659E0,-1.737189293E0,-8.819944382E0
1.314692307E0,3.747160196E0,-1.741974831E0,-8.867800713E0
1.316803088E0,3.742374659E0,-1.751546144E0,-8.906085968E0
1.318913869E0,3.737588882E0,-1.756331801E0,-8.949156761E0
1.321024651E0,3.723232031E0,-1.794616938E0,-8.968298912E0
1.323135432E0,3.732803345E0,-1.861616015E0,-8.968298912E0
1.325246213E0,3.713660717E0,-1.880758643E0,-8.973084450E0
1.327356994E0,3.694518089E0,-1.933400750E0,-8.953942299E0
1.329467776E0,3.680161238E0,-1.971685886E0,-8.977870941E0
1.331578557E0,3.661018610E0,-1.986042738E0,-8.992227554E0
1.333689338E0,3.656233072E0,-2.005185366E0,-8.949156761E0
1.335800119E0,3.637090445E0,-2.019542217E0,-8.939585686E0
1.337910901E0,3.608376503E0,-2.029113531E0,-8.944371223E0
1.340021682E0,3.608376503E0,-2.038684845E0,-8.925228119E0
1.342132463E0,3.584448338E0,-2.033899307E0,-8.925228119E0
1.344243244E0,3.560520172E0,-2.048256159E0,-8.939585686E0
1.346354026E0,3.574877024E0,-2.038684845E0,-8.930013657E0
1.348464755E0,3.589233875E0,-2.033899307E0,-8.915657043E0
1.350575536E0,3.632304668E0,-1.971685886E0,-8.891729355E0
1.352686317E0,3.680161238E0,-1.942971945E0,-8.906085968E0
1.354797098E0,3.689732552E0,-1.895115495E0,-8.906085968E0
1.356907880E0,3.732803345E0,-1.875972986E0,-8.934800148E0
1.359018661E0,3.775874138E0,-1.832902193E0,-8.930013657E0
1.361129442E0,3.842873096E0,-1.794616938E0,-8.934800148E0
1.363240223E0,3.862015724E0,-1.746760488E0,-8.963513374E0
1.365351005E0,3.871587038E0,-1.713261008E0,-8.982656479E0
1.367461786E0,3.890729666E0,-1.694118381E0,-9.030512810E0
1.369572567E0,3.885943890E0,-1.670190215E0,-9.030512810E0
1.371683348E0,3.909872293E0,-1.646261930E0,-9.011369705E0
1.373794130E0,3.905086517E0,-1.612762451E0,-9.016156197E0
1.375904911E0,3.938585997E0,-1.588834286E0,-9.006584167E0
1.378015692E0,3.938585997E0,-1.579262972E0,-9.001798630E0
1.380126473E0,3.962514400E0,-1.550549030E0,-8.958727837E0
1.382237255E0,3.967299938E0,-1.536192179E0,-8.944371223E0
1.384348036E0,3.967299938E0,-1.545763373E0,-8.925228119E0
1.386458817E0,3.986442566E0,-1.526620865E0,-8.930013657E0
1.388569598E0,3.986442566E0,-1.521835208E0,-8.901300430E0
1.390680380E0,3.972085476E0,-1.512263894E0,-8.886942863E0
1.392791161E0,3.962514400E0,-1.497906923E0,-8.848658562E0
1.394901890E0,3.938585997E0,-1.507478237E0,-8.834300995E0
1.397012671E0,3.909872293E0,-1.493121386E0,-8.824729919E0
1.399123453E0,3.876372576E0,-1.512263894E0,-8.796015739E0
1.401234234E0,3.842873096E0,-1.497906923E0,-8.786444664E0
1.403345015E0,3.804588079E0,-1.488335729E0,-8.757730484E0
1.405455796E0,3.771088600E0,-1.454836130E0,-8.743373871E0
1.407566578E0,3.737588882E0,-1.440479279E0,-8.738588333E0
1.409677359E0,3.713660717E0,-1.421336651E0,-8.709874153E0
1.411788140E0,3.713660717E0,-1.378265858E0,-8.685946465E0
1.413898921E0,3.704089403E0,-1.363908887E0,-8.719446182E0
1.416009703E0,3.723232031E0,-1.301695466E0,-8.719446182E0
1.418120484E0,3.728017569E0,-1.282552958E0,-8.719446182E0
1.420231265E0,3.728017569E0,-1.253839016E0,-8.738588333E0
1.422342046E0,3.747160196E0,-1.234696507E0,-8.767302513E0
1.424452828E0,3.761517286E0,-1.201196909E0,-8.829515457E0
1.426563609E0,3.790230989E0,-1.162911773E0,-8.858229637E0
1.428674390E0,3.799802303E0,-1.138983607E0,-8.896514893E0
1.430785171E0,3.809373617E0,-1.124626637E0,-8.953942299E0
1.432895953E0,3.838087559E0,-1.124626637E0,-8.982656479E0
1.435006734E0,3.847658873E0,-1.095912814E0,-9.030512810E0
1.437117515E0,3.842873096E0,-1.100698471E0,-9.059226990E0
1.439228296E0,3.862015724E0,-1.086341500E0,-9.078369141E0
1.441339026E0,3.862015724E0,-1.091127157E0,-9.078369141E0
1.443449859E0,3.866801500E0,-1.076770186E0,-9.064012527E0
1.445560588E0,3.876372576E0,-1.071984529E0,-9.020941734E0
1.447671317E0,3.905086517E0,-1.086341500E0,-9.006584167E0
1.449782151E0,3.895515203E0,-1.081555843E0,-8.977870941E0
1.451892932E0,3.933800459E0,-1.091127157E0,-8.949156761E0
1.454003713E0,3.952943087E0,-1.110269666E0,-8.915657043E0
1.456114494E0,3.962514400E0,-1.105484009E0,-8.886942863E0
1.458225276E0,3.981656790E0,-1.095912814E0,-8.848658562E0
1.460336057E0,4.005585194E0,-1.100698471E0,-8.848658562E0
1.462446838E0,4.024727821E0,-1.076770186E0,-8.786444664E0
1.464557619E0,4.048655987E0,-1.043270707E0,-8.752944946E0
1.466668401E0,4.063013077E0,-9.954141974E-1,-8.714659691E0
1.468779182E0,4.924428940E0,-1.215553880E0,-8.111668587E0
1.470889963E0,7.642675400E0,-2.038684845E0,-3.225524902E0
1.473000744E0,8.063812256E0,-1.813759565E0,-8.757730722E-1
1.475111526E0,7.317251682E0,-1.416550994E0,-2.143969059E0
1.477222307E0,7.408178806E0,-1.430907965E0,-3.814159393E0
1.479333088E0,7.657032490E0,-1.785045743E0,-5.522634506E0
1.481443869E0,7.609176159E0,-2.067398787E0,-7.944170952E0
1.483554651E0,7.590033531E0,-2.086541414E0,-1.041356373E1
1.485665432E0,7.680960655E0,-2.000399828E0,-1.212203979E1
1.487776213E0,7.786244869E0,-1.852044702E0,-1.308395386E1
1.489886942E0,7.867600918E0,-1.655833244E0,-1.344287777E1
1.491997723E0,7.877171993E0,-1.402194023E0,-1.331845093E1
1.494108505E0,7.776673794E0,-1.167697430E0,-1.272503090E1
1.496219286E0,7.590033531E0,-1.000199914E0,-1.171047401E1
1.498330067E0,7.298109055E0,-8.949156404E-1,-1.039442158E1
1.500440796E0,6.963113785E0,-8.853443861E-1,-8.992227554E0
1.502551630E0,6.623332977E0,-9.188438654E-1,-7.695317745E0
1.504662411E0,6.350551128E0,-1.009771109E0,-6.680760860E0
1.506773192E0,6.125626087E0,-1.100698471E0,-6.049055576E0
1.508883973E0,5.982056618E0,-1.244267821E0,-5.938985825E0
1.510994755E0,5.895915031E0,-1.406979680E0,-6.230910301E0
1.513105536E0,5.891129494E0,-1.531406522E0,-6.838686943E0
1.515216317E0,5.924628735E0,-1.674975872E0,-7.685746193E0
1.517327098E0,5.958128452E0,-1.808973908E0,-8.595019341E0
1.519437880E0,5.967699528E0,-1.938186288E0,-9.446864128E0
1.521548661E0,5.934200287E0,-2.053041935E0,-1.014556789E1
1.523659442E0,5.876772404E0,-2.172683001E0,-1.062413216E1
1.525770223E0,5.800201893E0,-2.287538528E0,-1.085862923E1
1.527881005E0,5.661418438E0,-2.407179594E0,-1.089691448E1
1.529991786E0,5.522634506E0,-2.483749866E0,-1.073898792E1
1.532102567E0,5.331208706E0,-2.555534601E0,-1.039442158E1
1.534213348E0,5.144568920E0,-2.617748022E0,-9.954142570E0
1.536324130E0,4.957928658E0,-2.651247501E0,-9.432506561E0
1.538434859E0,4.776073933E0,-2.660818815E0,-8.906085968E0
1.540545640E0,4.594219685E0,-2.689532757E0,-8.403593063E0
1.542656473E0,4.398007870E0,-2.660818815E0,-7.992027760E0
1.544767203E0,4.192225456E0,-2.622533560E0,-7.666603565E0
1.546877984E0,3.996013880E0,-2.622533560E0,-7.484749317E0
1.548988765E0,3.838087559E0,-2.598605394E0,-7.403393269E0
1.551099546E0,3.708875179E0,-2.584248543E0,-7.446464062E0
1.553210328E0,3.598805189E0,-2.574677229E0,-7.637889862E0
1.555321109E0,3.498306751E0,-2.550748825E0,-7.939385414E0
1.557431890E0,3.450450182E0,-2.545963287E0,-8.312665939E0
1.559542671E0,3.412165165E0,-2.517249346E0,-8.733802795E0
1.561653453E0,3.369094372E0,-2.493321180E0,-9.126225471E0
1.563764234E0,3.330809116E0,-2.459821701E0,-9.427721024E0
1.565875015E0,3.297309637E0,-2.421536446E0,-9.638289452E0
1.567985796E0,3.268595695E0,-2.388036966E0,-9.757930756E0
1.570096578E0,3.244667530E0,-2.335394859E0,-9.839286804E0
1.572207359E0,3.220739365E0,-2.301895380E0,-9.858428955E0
1.574318088E0,3.187239647E0,-2.268395901E0,-9.801001549E0
1.576428921E0,3.144168854E0,-2.215753794E0,-9.705288887E0
1.578539703E0,3.091526747E0,-2.158325911E0,-9.537791252E0
1.580650484E0,3.038884640E0,-2.139183521E0,-9.351150513E0
1.582761265E0,2.981456995E0,-2.076970100E0,-9.135796547E0
1.584872046E0,2.971885681E0,-2.019542217E0,-8.949156761E0
1.586982776E0,2.947957516E0,-1.986042738E0,-8.791230202E0
1.589093557E0,2.952743053E0,-1.947757602E0,-8.657232285E0
1.591204338E0,2.919243574E0,-1.919043779E0,-8.595019341E0
1.593315119E0,2.938386202E0,-1.904686809E0,-8.571090698E0
1.595425901E0,2.962314367E0,-1.890329838E0,-8.609375954E0
1.597536682E0,2.962314367E0,-1.875972986E0,-8.705088615E0
1.599647463E0,2.976671457E0,-1.885544300E0,-8.839086533E0
1.601758244E0,2.986242771E0,-1.899901152E0,-8.953942299E0
1.603869026E0,3.000599623E0,-1.871187329E0,-9.059226990E0
1.605979807E0,3.005385160E0,-1.852044702E0,-9.107083321E0
1.608090588E0,3.019742250E0,-1.823330879E0,-9.121439934E0
1.610201369E0,3.034099102E0,-1.789831281E0,-9.087940216E0
1.612312151E0,3.019742250E0,-1.770688772E0,-9.011369705E0
1.614422932E0,3.034099102E0,-1.761117458E0,-8.906085968E0
1.616533713E0,3.043670416E0,-1.746760488E0,-8.810373306E0
1.618644494E0,3.067598581E0,-1.737189293E0,-8.671588898E0
1.620755276E0,3.110669374E0,-1.741974831E0,-8.566305161E0
1.622866057E0,3.192025423E0,-1.765903115E0,-8.494520187E0
1.624976838E0,3.278167009E0,-1.770688772E0,-8.475378036E0
1.627087619E0,3.373879910E0,-1.775474429E0,-8.513663292E0
1.629198401E0,3.483949661E0,-1.799402595E0,-8.618947029E0
1.631309130E0,3.579662561E0,-1.813759565E0,-8.762516975E0
1.633419911E0,3.689732552E0,-1.828116536E0,-8.896514893E0
1.635530692E0,3.780659676E0,-1.818545222E0,-9.059226990E0
1.637641421E0,3.857230186E0,-1.823330879E0,-9.217152596E0
1.639752255E0,3.909872293E0,-1.823330879E0,-9.317651749E0
1.641863036E0,3.972085476E0,-1.813759565E0,-9.418149948E0
1.643973817E0,4.019941807E0,-1.828116536E0,-9.485149384E0
1.646084598E0,4.048655987E0,-1.852044702E0,-9.552147865E0
1.648195380E0,3.900300980E0,-2.043470621E0,-9.628718376E0
1.650306161E0,3.493520975E0,-2.507678032E0,-9.767501831E0
1.652416942E0,3.527020693E0,-2.560320139E0,-9.690931320E0
1.654527723E0,3.603590965E0,-2.589034081E0,-9.580862045E0
1.656638505E0,3.646661758E0,-2.589034081E0,-9.456435204E0
1.658749286E0,3.713660717E0,-2.565105915E0,-9.279366493E0
1.660860067E0,3.756731510E0,-2.512463808E0,-9.049654961E0
1.662970848E0,3.833301783E0,-2.388036966E0,-8.796015739E0
1.665081630E0,3.876372576E0,-2.263610125E0,-8.523234367E0
1.667192411E0,3.900300980E0,-2.124826431E0,-8.274380684E0
1.669303192E0,3.933800459E0,-2.005185366E0,-8.054241180E0
1.671413973E0,3.972085476E0,-1.923829436E0,-7.963313580E0
1.673524755E0,4.010370731E0,-1.828116536E0,-7.929814339E0
1.675635536E0,4.048655987E0,-1.751546144E0,-8.044670105E0
1.677746317E0,4.120440483E0,-1.665404558E0,-8.226524353E0
1.679857046E0,4.177868366E0,-1.574477315E0,-8.494520187E0
1.681967828E0,4.225724697E0,-1.536192179E0,-8.772088051E0
1.684078609E0,4.297509670E0,-1.473978758E0,-9.059226990E0
1.686189390E0,4.326223373E0,-1.430907965E0,-9.284152031E0
1.688300171E0,4.374079704E0,-1.392622828E0,-9.475577354E0
1.690410901E0,4.378865242E0,-1.335195065E0,-9.571290970E0
1.692521734E0,4.388436794E0,-1.272981644E0,-9.595218658E0
1.694632515E0,4.383651257E0,-1.229910851E0,-9.571290970E0
1.696743296E0,4.345366001E0,-1.182054400E0,-9.442078590E0
1.698854078E0,4.345366001E0,-1.119840980E0,-9.327222824E0
1.700964859E0,4.417150497E0,-1.043270707E0,-9.064012527E0
1.703075640E0,4.579862595E0,-9.092726111E-1,-8.657232285E0
1.705186421E0,4.723432064E0,-7.704889178E-1,-8.279166222E0
1.707297203E0,4.790431023E0,-6.412764788E-1,-8.145168304E0
1.709407984E0,4.838287354E0,-5.742774606E-1,-8.159524918E0
1.711518765E0,4.914857864E0,-5.216353536E-1,-8.231309891E0
1.713629546E0,4.962714195E0,-5.120640397E-1,-8.317451477E0
1.715740328E0,4.967499733E0,-4.881358147E-1,-8.422736168E0
1.717851109E0,5.000999451E0,-4.977070987E-1,-8.508877754E0
1.719961890E0,5.053641319E0,-4.977070987E-1,-8.542376518E0
1.722072619E0,5.130211830E0,-5.024927258E-1,-8.571090698E0
1.724183401E0,5.197210789E0,-5.072783828E-1,-8.623732567E0
1.726294182E0,5.264209747E0,-4.977070987E-1,-8.657232285E0
1.728404963E0,5.355136871E0,-4.689932466E-1,-8.657232285E0
1.730515744E0,5.398207664E0,-4.546363056E-1,-8.647661209E0
1.732626526E0,5.431707382E0,-4.354937077E-1,-8.599804878E0
1.734737307E0,5.474778175E0,-4.450650215E-1,-8.532805443E0
1.736848088E0,5.503491879E0,-4.307080805E-1,-8.461020470E0
1.738958869E0,5.546562672E0,-4.402793646E-1,-8.379665375E0
1.741069651E0,5.584847927E0,-4.211367965E-1,-8.283951759E0
1.743180432E0,5.603990555E0,-4.067798555E-1,-8.207381248E0
1.745291213E0,5.613562107E0,-3.828516304E-1,-8.116454124E0
1.747401994E0,5.642275810E0,-3.541377485E-1,-8.006384850E0
1.749512723E0,5.632704735E0,-3.110669553E-1,-7.872386456E0
1.751623557E0,5.580062389E0,-2.344966233E-1,-7.781459332E0
1.753734338E0,5.560919762E0,-1.435693651E-1,-7.661818027E0
1.755845119E0,5.522634506E0,-6.221338734E-2,-7.580461979E0
1.757955901E0,5.479563713E0,3.349951655E-2,-7.570890903E0
1.760066682E0,5.417350292E0,1.244267747E-1,-7.580461979E0
1.762177463E0,5.379065514E0,1.722832322E-1,-7.637889862E0
1.764288244E0,5.312066078E0,2.057827413E-1,-7.771887779E0
1.766399026E0,5.254638672E0,2.105683982E-1,-7.929814339E0
1.768509755E0,5.235496044E0,2.727817893E-1,-8.140382767E0
1.770620536E0,5.187639713E0,2.871387303E-1,-8.398807526E0
1.772731317E0,5.139782906E0,3.445664644E-1,-8.614161491E0
1.774842098E0,5.106283665E0,4.115654826E-1,-8.791230202E0
1.776952880E0,5.039284706E0,4.737788737E-1,-8.843872070E0
1.779063661E0,5.010570526E0,5.359922647E-1,-8.915657043E0
1.781174442E0,4.957928658E0,6.029912829E-1,-8.968298912E0
1.783285223E0,4.943571568E0,6.125625968E-1,-9.040083885E0
1.785396005E0,4.924428940E0,6.125625968E-1,-9.111868858E0
1.787506786E0,4.919643402E0,5.982056856E-1,-9.169296265E0
1.789617567E0,4.881358147E0,5.982056856E-1,-9.221938133E0
1.791728348E0,4.852644444E0,5.838487148E-1,-9.212367058E0
1.793839130E0,4.795216560E0,5.790630579E-1,-9.154939651E0
1.795949911E0,4.670789719E0,5.407779217E-1,-9.040083885E0
1.798060692E0,4.603790760E0,5.120640397E-1,-8.901300430E0
1.800171473E0,4.512863636E0,4.833501875E-1,-8.973084450E0
1.802282255E0,4.417150497E0,4.833501875E-1,-9.044869423E0
1.804393036E0,4.307080746E0,4.498506486E-1,-9.078369141E0
1.806503817E0,4.182653904E0,4.450650215E-1,-9.092725754E0
1.808614598E0,4.096512318E0,4.211367965E-1,-9.111868858E0
1.810725380E0,3.986442566E0,4.067798555E-1,-9.183652878E0
1.812836161E0,3.895515203E0,3.732803464E-1,-9.322437286E0
1.814946942E0,3.818944931E0,2.967100143E-1,-9.504291534E0
1.817057671E0,3.742374659E0,2.249253243E-1,-9.667003632E0
1.819168453E0,3.689732552E0,1.722832322E-1,-9.844072342E0
1.821279234E0,3.589233875E0,1.052841991E-1,-9.887143135E0
1.823390015E0,3.512663603E0,5.264209956E-2,-9.844072342E0
1.825500796E0,3.416950703E0,-2.871387079E-2,-9.643074989E0
1.827611578E0,3.292523861E0,-1.004985496E-1,-9.451649666E0
1.829722359E0,3.148954630E0,-1.339980662E-1,-9.322437286E0
1.831833140E0,2.991028309E0,-1.674975902E-1,-9.207581520E0
1.833943921E0,2.842673302E0,-1.818545163E-1,-9.154939651E0
1.836054703E0,2.694318295E0,-1.818545163E-1,-9.116654396E0
1.838165484E0,2.536391973E0,-1.818545163E-1,-9.135796547E0
1.840276265E0,2.392822742E0,-2.105683982E-1,-9.221938133E0
1.842387046E0,2.249253273E0,-2.249253243E-1,-9.332008362E0
1.844497828E0,2.134397745E0,-2.440679073E-1,-9.451649666E0
1.846608609E0,1.986042738E0,-2.584248483E-1,-9.547362328E0
1.848719390E0,1.837687731E0,-2.727817893E-1,-9.633503914E0
1.850830171E0,1.660618901E0,-2.823530734E-1,-9.695717812E0
1.852940953E0,1.502692580E0,-2.632105052E-1,-9.738788605E0
1.855051734E0,1.316052437E0,-2.440679073E-1,-9.734002113E0
1.857162515E0,1.138983607E0,-2.249253243E-1,-9.667003632E0
1.859273244E0,9.427721500E-1,-1.818545163E-1,-9.547362328E0
1.861384026E0,7.417750359E-1,-1.483550072E-1,-9.456435204E0
1.863494807E0,4.211367965E-1,-9.092725813E-2,-9.394221306E0
1.865605588E0,4.785645381E-2,-1.435693540E-2,-9.370293617E0
1.867716369E0,-3.014956415E-1,7.657032460E-2,-9.422935486E0
1.869827151E0,-6.125625968E-1,1.435693651E-1,-9.461220741E0
1.871937932E0,-8.757730722E-1,2.488535494E-1,-9.537791252E0
1.874048713E0,-1.095912814E0,3.541377485E-1,-9.652647018E0
1.876159494E0,-1.249053478E0,4.450650215E-1,-9.791430473E0
1.878270276E0,-1.363908887E0,5.407779217E-1,-9.944570541E0
1.880381057E0,-1.406979680E0,6.699903607E-1,-1.005464077E1
1.882491838E0,-1.406979680E0,7.657032609E-1,-1.003549862E1
1.884602619E0,-1.383051515E0,8.709874153E-1,-9.944570541E0
1.886713401E0,-1.320838094E0,9.858429432E-1,-9.839286804E0
1.888824130E0,-1.220339537E0,1.105484009E0,-9.724431038E0
1.890934963E0,-1.048056364E0,1.239482164E0,-9.619147301E0
1.893045744E0,-8.279166222E-1,1.392622828E0,-9.528220177E0
1.895156526E0,-5.264210105E-1,1.598405480E0,-9.442078590E0
1.897267307E0,-1.196411327E-1,1.856830359E0,-9.327222824E0
1.899378088E0,4.929214716E-1,2.210968018E0,-9.202795982E0
1.901488869E0,1.115055323E0,2.565105915E0,-9.011369705E0
1.903599651E0,1.517049551E0,2.837887764E0,-8.719446182E0
1.905710432E0,1.722832322E0,2.947957516E0,-8.398807526E0
1.907821161E0,1.813759565E0,2.995813847E0,-8.102097511E0
1.909931942E0,1.856830359E0,2.991028309E0,-7.853243828E0
1.912042723E0,1.909472466E0,3.000599623E0,-7.704888821E0
1.914153505E0,2.000399828E0,3.005385160E0,-7.661818027E0
1.916264286E0,2.134397745E0,3.024527788E0,-7.700103283E0
1.918375067E0,2.254039049E0,3.034099102E0,-7.810173035E0
1.920485848E0,2.388036966E0,3.029313564E0,-7.977670670E0
1.922596630E0,2.512463808E0,3.034099102E0,-8.169096947E0
1.924707411E0,2.622533560E0,3.024527788E0,-8.365307808E0
1.926818192E0,2.703889608E0,3.010170937E0,-8.585447311E0
1.928928973E0,2.770888567E0,3.010170937E0,-8.748159409E0
1.931039755E0,2.799602509E0,3.005385160E0,-8.877371788E0
1.933150536E0,2.804388046E0,2.986242771E0,-8.982656479E0
1.935261317E0,2.828316450E0,2.976671457E0,-9.020941734E0
1.937372098E0,2.828316450E0,2.943171740E0,-9.025727272E0
1.939482880E0,2.823530674E0,2.900100946E0,-8.934800148E0
1.941593661E0,2.847458839E0,2.871387243E0,-8.872586250E0
1.943704442E0,2.861815929E0,2.828316450E0,-8.791230202E0
1.945815223E0,2.895315409E0,2.766103029E0,-8.738588333E0
1.947926005E0,2.933600664E0,2.689532757E0,-8.690732002E0
1.950036734E0,2.952743053E0,2.617748022E0,-8.681160927E0
1.952147567E0,2.976671457E0,2.531606436E0,-8.671588898E0
1.954258348E0,2.976671457E0,2.455035925E0,-8.666803360E0
1.956369078E0,2.995813847E0,2.368894339E0,-8.700303078E0
1.958479859E0,2.995813847E0,2.273181438E0,-8.757730484E0
1.960590640E0,3.019742250E0,2.191825628E0,-8.843872070E0
1.962701421E0,3.038884640E0,2.072184324E0,-8.910871506E0
1.964812203E0,3.058027267E0,1.938186288E0,-8.997013092E0
1.966922984E0,3.101098061E0,1.828116536E0,-9.068798065E0
1.969033765E0,3.110669374E0,1.718046665E0,-9.135796547E0
1.971144546E0,3.129812002E0,1.584048629E0,-9.231510162E0
1.973255328E0,3.139383316E0,1.454836130E0,-9.274580956E0
1.975366109E0,3.148954630E0,1.339980721E0,-9.341579437E0
1.977476890E0,3.115455151E0,1.225125194E0,-9.413364410E0
1.979587671E0,3.081955671E0,1.115055323E0,-9.494720459E0
1.981698453E0,3.038884640E0,1.024128079E0,-9.556933403E0
1.983809234E0,2.991028309E0,9.379864931E-1,-9.528220177E0
1.985920015E0,2.952743053E0,8.518448472E-1,-9.427721024E0
1.988030796E0,2.866601467E0,7.561319470E-1,-9.279366493E0
1.990141578E0,2.790031195E0,6.556333899E-1,-9.102297783E0
1.992252359E0,2.723032236E0,5.694918036E-1,-8.977870941E0
1.994363140E0,2.660818815E0,5.072783828E-1,-8.815158844E0
1.996473921E0,2.627319336E0,4.307080805E-1,-8.709874153E0
1.998584651E0,2.589034081E0,3.972085714E-1,-8.662017822E0
2.000695432E0,2.574677229E0,3.541377485E-1,-8.676374435E0
2.002806213E0,2.608176708E0,3.014956415E-1,-8.714659691E0
2.004916994E0,2.612962246E0,2.775674164E-1,-8.776873589E0
2.007027776E0,2.632104874E0,2.440679073E-1,-8.877371788E0
2.009138557E0,2.679961443E0,2.344966233E-1,-8.977870941E0
2.011249338E0,2.713460922E0,2.297109663E-1,-9.131011009E0
2.013360119E0,2.770888567E0,2.344966233E-1,-9.269794464E0
2.015470901E0,2.809173822E0,2.201396823E-1,-9.394221306E0
2.017581682E0,2.823530674E0,2.297109663E-1,-9.466006279E0
2.019692463E0,2.837887764E0,2.153540403E-1,-9.489934921E0
2.021803244E0,2.871387243E0,2.392822653E-1,-9.418149948E0
2.023914026E0,3.014956474E0,3.254238665E-1,-9.154939651E0
2.026024807E0,3.196810961E0,4.307080805E-1,-8.748159409E0
2.028135588E0,3.388236761E0,5.790630579E-1,-8.188239098E0
2.030246369E0,3.594019651E0,7.704889178E-1,-7.546962738E0
2.032357151E0,3.814159393E0,8.757730722E-1,-7.173682213E0
2.034467932E0,4.029513359E0,8.853443861E-1,-7.231110096E0
2.036578713E0,4.283152580E0,8.566305041E-1,-7.604390144E0
2.038689494E0,4.589433670E0,8.470591903E-1,-8.193024635E0
2.040800276E0,4.871787071E0,8.327022791E-1,-8.834300995E0
2.042911057E0,5.134997368E0,8.327022791E-1,-9.360722542E0
2.045021786E0,5.388636589E0,8.566305041E-1,-9.710074425E0
2.047132567E0,5.637490273E0,8.901300430E-1,-9.877572060E0
2.049243348E0,5.862415314E0,9.092726111E-1,-9.911071777E0
2.051354130E0,6.034698486E0,9.044869542E-1,-9.772287369E0
2.053464911E0,6.163911343E0,8.757730722E-1,-9.576076508E0
2.055575692E0,6.297909260E0,8.518448472E-1,-9.284152031E0
2.057686473E0,6.374479294E0,8.039883971E-1,-9.011369705E0
2.059797255E0,6.465406895E0,7.417750359E-1,-8.772088051E0
2.061908036E0,6.565905571E0,6.747759581E-1,-8.585447311E0
2.064018817E0,6.637690067E0,5.886343718E-1,-8.451449394E0
2.066129598E0,6.714260101E0,5.312066078E-1,-8.389236450E0
2.068240380E0,6.805187702E0,4.402793646E-1,-8.317451477E0
2.070351161E0,6.896114826E0,3.589234054E-1,-8.279166222E0
2.072461942E0,6.972685337E0,2.632105052E-1,-8.245666504E0
2.074572723E0,7.015756130E0,1.579262912E-1,-8.221738815E0
2.076683505E0,7.015756130E0,7.178468257E-2,-8.240880966E0
2.078794286E0,7.010970116E0,-5.264209956E-2,-8.303094864E0
2.080905067E0,6.972685337E0,-1.339980662E-1,-8.346165657E0
2.083015848E0,6.924828529E0,-2.105683982E-1,-8.408378601E0
2.085126630E0,6.872186661E0,-3.110669553E-1,-8.494520187E0
2.087237411E0,6.805187702E0,-4.211367965E-1,-8.556734085E0
2.089348192E0,6.733402729E0,-4.881358147E-1,-8.618947029E0
2.091458973E0,6.632904530E0,-5.599204898E-1,-8.690732002E0
2.093569703E0,6.498906136E0,-6.317051649E-1,-8.781659126E0
2.095680484E0,6.360122681E0,-6.747759581E-1,-8.805587769E0
2.097791265E0,6.173482418E0,-7.226324677E-1,-8.762516975E0
2.099902046E0,5.972485542E0,-7.513462901E-1,-8.690732002E0
2.102012828E0,5.766702652E0,-7.800601721E-1,-8.585447311E0
2.104123609E0,5.575276852E0,-7.992027402E-1,-8.480163574E0
2.106234390E0,5.388636589E0,-8.279166222E-1,-8.413164139E0
2.108345171E0,5.225924492E0,-8.566305041E-1,-8.398807526E0
2.110455953E0,5.082355499E0,-8.327022791E-1,-8.417949677E0
2.112566734E0,4.962714195E0,-8.183453679E-1,-8.532805443E0
2.114677515E0,4.876572609E0,-8.087740541E-1,-8.647661209E0
2.116788296E0,4.814359188E0,-8.279166222E-1,-8.796015739E0
2.118899078E0,4.742574692E0,-8.374879360E-1,-8.896514893E0
2.121009859E0,4.704289436E0,-8.183453679E-1,-8.997013092E0
2.123120640E0,4.656432629E0,-8.087740541E-1,-9.097511292E0
2.125231421E0,4.622933388E0,-7.800601721E-1,-9.087940216E0
2.127342203E0,4.575077057E0,-7.657032609E-1,-9.068798065E0
2.129452984E0,4.541577339E0,-7.417750359E-1,-9.011369705E0
2.131563765E0,4.512863636E0,-7.417750359E-1,-8.939585686E0
2.133674494E0,4.469792843E0,-7.322037220E-1,-8.853444099E0
2.135785276E0,4.460221291E0,-7.082754970E-1,-8.762516975E0
2.137896057E0,4.450650215E0,-6.843472719E-1,-8.685946465E0
2.140006838E0,4.465006828E0,-6.556333899E-1,-8.633303642E0
2.142117619E0,4.450650215E0,-6.221339107E-1,-8.599804878E0
2.144228401E0,4.421936035E0,-5.742774606E-1,-8.571090698E0
2.146339182E0,4.436293125E0,-5.024927258E-1,-8.523234367E0
2.148449963E0,4.426722050E0,-4.689932466E-1,-8.494520187E0
2.150560744E0,4.450650215E0,-4.019941986E-1,-8.451449394E0
2.152671526E0,4.436293125E0,-3.493520916E-1,-8.413164139E0
2.154782307E0,4.474578381E0,-2.919243574E-1,-8.355736732E0
2.156893088E0,4.517649174E0,-2.153540403E-1,-8.312665939E0
2.159003869E0,4.570291042E0,-1.531406492E-1,-8.226524353E0
2.161114651E0,4.603790760E0,-5.742774159E-2,-8.149953842E0
2.163225432E0,4.666004181E0,9.571290575E-3,-8.097311974E0
2.165336161E0,4.709074974E0,3.828516230E-2,-8.030312538E0
2.167446994E0,4.771288395E0,8.135596663E-2,-7.982456207E0
2.169557776E0,4.833501816E0,1.052841991E-1,-7.972885132E0
2.171668557E0,4.843072891E0,1.052841991E-1,-7.948956966E0
2.173779338E0,4.862215519E0,8.135596663E-2,-7.896314621E0
2.175890119E0,4.881358147E0,8.135596663E-2,-7.853243828E0
2.178000901E0,4.890929699E0,8.614161611E-2,-7.800601959E0
2.180111682E0,4.943571568E0,1.004985496E-1,-7.757531166E0
2.182222463E0,5.024927616E0,1.100698411E-1,-7.767102242E0
2.184333244E0,5.101497650E0,1.052841991E-1,-7.814958572E0
2.186443973E0,5.211567879E0,1.579262912E-1,-7.858029366E0
2.188554755E0,5.335994720E0,1.722832322E-1,-7.944170952E0
2.190665588E0,5.489135265E0,2.392822653E-1,-8.025527000E0
2.192776317E0,5.804987907E0,4.067798555E-1,-8.135597229E0
2.194887098E0,6.245266914E0,6.029912829E-1,-8.269595146E0
2.196997880E0,6.522834301E0,7.465606928E-1,-8.250452042E0
2.199108661E0,6.589833736E0,7.848458290E-1,-8.097311974E0
2.201219442E0,6.561119556E0,7.322037220E-1,-7.867600918E0
2.203330223E0,6.652047157E0,7.226324677E-1,-7.302894592E0
2.205441005E0,6.671189308E0,6.556333899E-1,-7.144968510E0
2.207551786E0,6.680760860E0,5.742774606E-1,-7.302894592E0
2.209662567E0,6.766902447E0,5.359922647E-1,-7.475177765E0
2.211773348E0,6.905686378E0,5.024927258E-1,-7.652246952E0
2.213884130E0,7.044469833E0,4.594219327E-1,-7.853243828E0
2.215994911E0,7.183253765E0,4.211367965E-1,-8.092526436E0
2.218105692E0,7.298109055E0,3.876372576E-1,-8.236095428E0
2.220216473E0,7.389036179E0,3.684946895E-1,-8.312665939E0
2.222327255E0,7.436892986E0,3.493520916E-1,-8.355736732E0
2.224438036E0,7.456035137E0,3.589234054E-1,-8.350951195E0
2.226548817E0,7.465606689E0,3.445664644E-1,-8.317451477E0
2.228659598E0,7.456035137E0,3.349951804E-1,-8.269595146E0
2.230770380E0,7.427321434E0,3.254238665E-1,-8.216953278E0
2.232881161E0,7.374679565E0,3.254238665E-1,-8.149953842E0
2.234991890E0,7.288537979E0,3.062812984E-1,-8.154739380E0
2.237102723E0,7.211967468E0,2.823530734E-1,-8.169096947E0
2.239213453E0,7.101897717E0,2.297109663E-1,-8.197810173E0
2.241324234E0,6.963113785E0,1.866401732E-1,-8.250452042E0
2.243435015E0,6.819544315E0,1.674975902E-1,-8.303094864E0
2.245545796E0,6.690331936E0,1.435693651E-1,-8.336593628E0
2.247656578E0,6.556334019E0,1.483550072E-1,-8.360522270E0
2.249767359E0,6.436692715E0,1.435693651E-1,-8.441878319E0
2.251878140E0,6.355337143E0,1.244267747E-1,-8.513663292E0
2.253988921E0,6.197410583E0,1.579262912E-1,-8.609375954E0
2.256099703E0,5.690132141E0,3.014956415E-1,-8.657232285E0
2.258210484E0,5.087141037E0,4.833501875E-1,-8.551948547E0
2.260321265E0,4.517649174E0,6.412764788E-1,-8.389236450E0
2.262432046E0,4.043870449E0,7.800601721E-1,-8.126026154E0
2.264542828E0,3.622733593E0,9.044869542E-1,-7.915457249E0
2.266653609E0,3.244667530E0,1.028913736E0,-7.829315662E0
2.268764390E0,2.928814888E0,1.138983607E0,-7.968099594E0
2.270875171E0,2.651247501E0,1.201196909E0,-8.250452042E0
2.272985953E0,2.426322222E0,1.215553880E0,-8.695517540E0
2.275096682E0,2.258824587E0,1.234696507E0,-9.154939651E0
2.277207463E0,2.124826431E0,1.258624673E0,-9.533005714E0
2.279318244E0,2.005185366E0,1.229910851E0,-9.820143700E0
2.281429026E0,1.875972986E0,1.225125194E0,-9.973284721E0
2.283539807E0,1.823330879E0,1.210768223E0,-1.001156998E1
2.285650588E0,1.718046665E0,1.191625714E0,-9.982855797E0
2.287761369E0,1.655833244E0,1.162911773E0,-9.786644936E0
2.289872151E0,1.598405480E0,1.134197950E0,-9.523433685E0
2.291982932E0,1.526620865E0,1.095912814E0,-9.183652878E0
2.294093713E0,1.469193101E0,1.071984529E0,-8.829515457E0
2.296204494E0,1.411765337E0,1.028913736E0,-8.547162056E0
2.298315276E0,1.373480201E0,9.906286001E-1,-8.322237015E0
2.300426057E0,1.406979680E0,9.427721500E-1,-8.173882484E0
2.302536838E0,1.454836130E0,8.997012973E-1,-8.164310455E0
2.304647619E0,1.560120344E0,8.709874153E-1,-8.207381248E0
2.306758401E0,1.698904037E0,8.709874153E-1,-8.274380684E0
2.308869182E0,1.895115495E0,8.805587292E-1,-8.307880402E0
2.310979963E0,2.096112728E0,9.092726111E-1,-8.350951195E0
2.313090744E0,2.301895380E0,9.619147182E-1,-8.446663857E0
2.315201526E0,2.536391973E0,1.028913736E0,-8.575876236E0
2.317312307E0,2.818745136E0,1.057627559E0,-8.748159409E0
2.319423088E0,3.077169895E0,1.067198873E0,-8.973084450E0
2.321533869E0,3.349951744E0,1.019342422E0,-9.178867340E0
2.323644651E0,3.622733593E0,9.667003751E-1,-9.355937004E0
2.325755432E0,3.876372576E0,8.949156404E-1,-9.456435204E0
2.327866161E0,4.110869408E0,8.279166222E-1,-9.523433685E0
2.329976942E0,4.359723091E0,7.944171429E-1,-9.556933403E0
2.332087723E0,4.570291042E0,7.848458290E-1,-9.446864128E0
2.334198505E0,4.747360229E0,7.800601721E-1,-9.207581520E0
2.336309286E0,4.886143684E0,7.944171429E-1,-8.958727837E0
2.338420067E0,4.986642361E0,8.087740541E-1,-8.676374435E0
2.340530848E0,5.039284706E0,7.944171429E-1,-8.456234932E0
2.342641630E0,5.087141037E0,7.944171429E-1,-8.260024071E0
2.344752411E0,5.149354458E0,7.322037220E-1,-8.159524918E0
2.346863192E0,5.221138954E0,6.699903607E-1,-8.106883049E0
2.348973973E0,5.312066078E0,6.029912829E-1,-8.102097511E0
2.351084755E0,5.685346603E0,5.934200287E-1,-7.791030407E0
2.353195536E0,5.867201328E0,7.322037220E-1,-7.264609337E0
2.355306317E0,5.776273727E0,8.805587292E-1,-6.872186661E0
2.357417098E0,5.675775528E0,8.757730722E-1,-6.920042992E0
2.359527880E0,5.632704735E0,8.901300430E-1,-7.211967468E0
2.361638661E0,5.666203976E0,8.662018180E-1,-7.666603565E0
2.363749442E0,5.737988472E0,8.135597110E-1,-8.164310455E0
2.365860223E0,5.857629776E0,7.992027402E-1,-8.484949112E0
2.367971005E0,5.929414749E0,8.279166222E-1,-8.662017822E0
2.370081734E0,6.001199245E0,8.470591903E-1,-8.738588333E0
2.372192515E0,6.020341873E0,8.757730722E-1,-8.719446182E0
2.374303348E0,5.991627693E0,8.614161611E-1,-8.671588898E0
2.376414078E0,5.881557941E0,8.662018180E-1,-8.609375954E0
2.378524859E0,5.752345562E0,8.662018180E-1,-8.528019905E0
2.380635640E0,5.594419479E0,8.709874153E-1,-8.437092781E0
2.382746421E0,5.450850010E0,8.422735929E-1,-8.384450912E0
2.384857203E0,5.345565796E0,8.135597110E-1,-8.346165657E0
2.386967984E0,5.235496044E0,7.561319470E-1,-8.360522270E0
2.389078765E0,5.154139996E0,7.034898400E-1,-8.403593063E0
2.391189546E0,5.087141037E0,6.221339107E-1,-8.494520187E0
2.393300328E0,5.029713154E0,6.077769399E-1,-8.595019341E0
2.395411109E0,4.986642361E0,5.742774606E-1,-8.642875671E0
2.397521890E0,4.948357105E0,5.694918036E-1,-8.685946465E0
2.399632671E0,4.919643402E0,5.647061467E-1,-8.733802795E0
2.401743453E0,4.919643402E0,5.790630579E-1,-8.724231720E0
2.403854234E0,4.919643402E0,5.742774606E-1,-8.724231720E0
2.405965015E0,4.910071850E0,5.503492355E-1,-8.733802795E0
2.408075796E0,4.910071850E0,5.407779217E-1,-8.666803360E0
2.410186578E0,4.895715237E0,5.455635786E-1,-8.599804878E0
2.412297359E0,4.876572609E0,5.312066078E-1,-8.484949112E0
2.414408088E0,4.838287354E0,5.264210105E-1,-8.389236450E0
2.416518869E0,4.809573650E0,4.785645306E-1,-8.264809608E0
2.418629703E0,4.771288395E0,4.546363056E-1,-8.149953842E0
2.420740432E0,4.728217602E0,3.924229145E-1,-8.044670105E0
2.422851213E0,4.666004181E0,3.589234054E-1,-7.963313580E0
2.424961994E0,4.622933388E0,3.254238665E-1,-7.881958008E0
2.427072776E0,4.589433670E0,2.967100143E-1,-7.858029366E0
2.429183557E0,4.599005222E0,2.584248483E-1,-7.867600918E0
2.431294338E0,4.584648132E0,2.249253243E-1,-7.920242786E0
2.433405119E0,4.589433670E0,2.105683982E-1,-7.953742504E0
2.435515901E0,4.594219685E0,1.722832322E-1,-8.011170387E0
2.437626682E0,4.594219685E0,1.579262912E-1,-8.092526436E0
2.439737463E0,4.618147850E0,1.531406492E-1,-8.173882484E0
2.441848244E0,4.608576298E0,1.435693651E-1,-8.245666504E0
2.443959026E0,4.627718925E0,1.483550072E-1,-8.331808090E0
2.446069807E0,4.608576298E0,1.435693651E-1,-8.427521706E0
2.448180588E0,4.579862595E0,1.674975902E-1,-8.504091263E0
2.450291369E0,4.555934429E0,2.009970993E-1,-8.551948547E0
2.452402151E0,4.493721008E0,2.153540403E-1,-8.599804878E0
2.454512932E0,4.441078663E0,2.201396823E-1,-8.609375954E0
2.456623713E0,4.412364960E0,2.297109663E-1,-8.614161491E0
2.458734494E0,4.398007870E0,2.392822653E-1,-8.590232849E0
2.460845276E0,4.388436794E0,2.344966233E-1,-8.604590416E0
2.462955953E0,4.378865242E0,2.249253243E-1,-8.642875671E0
2.465066786E0,4.393222332E0,2.440679073E-1,-8.652446747E0
2.467177567E0,4.412364960E0,2.632105052E-1,-8.700303078E0
2.469288348E0,4.441078663E0,2.775674164E-1,-8.738588333E0
2.471399130E0,4.465006828E0,3.110669553E-1,-8.767302513E0
2.473509911E0,4.484149456E0,3.541377485E-1,-8.805587769E0
2.475620692E0,4.512863636E0,3.684946895E-1,-8.829515457E0
2.477731473E0,4.541577339E0,3.876372576E-1,-8.848658562E0
2.479842255E0,4.551148891E0,4.115654826E-1,-8.891729355E0
2.481953036E0,4.551148891E0,4.307080805E-1,-8.906085968E0
2.484063817E0,4.560719967E0,4.642075896E-1,-8.901300430E0
2.486174598E0,4.565505505E0,4.881358147E-1,-8.877371788E0
2.488285380E0,4.584648132E0,5.120640397E-1,-8.853444099E0
2.490396161E0,4.589433670E0,5.407779217E-1,-8.848658562E0
2.492506942E0,4.618147850E0,5.455635786E-1,-8.791230202E0
2.494617723E0,4.618147850E0,5.455635786E-1,-8.733802795E0
2.496728505E0,4.622933388E0,5.407779217E-1,-8.695517540E0
2.498839286E0,4.632504463E0,5.407779217E-1,-8.633303642E0
2.500950015E0,4.646861553E0,5.264210105E-1,-8.551948547E0
2.503060848E0,4.632504463E0,5.216353536E-1,-8.489734650E0
2.505171578E0,4.618147850E0,5.264210105E-1,-8.465806961E0
2.507282359E0,4.603790760E0,4.977070987E-1,-8.413164139E0
2.509393192E0,4.613361835E0,4.833501875E-1,-8.403593063E0
2.511503921E0,4.594219685E0,4.594219327E-1,-8.403593063E0
2.513614703E0,4.603790760E0,4.498506486E-1,-8.408378601E0
2.515725484E0,4.618147850E0,4.211367965E-1,-8.427521706E0
2.517836265E0,4.637290478E0,4.259224236E-1,-8.470592499E0
2.519947046E0,4.656432629E0,4.211367965E-1,-8.499305725E0
2.522057828E0,4.666004181E0,4.354937077E-1,-8.537590981E0
2.524168609E0,4.709074974E0,4.689932466E-1,-8.556734085E0
2.526279390E0,4.747360229E0,4.881358147E-1,-8.580661774E0
2.528390171E0,4.761716843E0,5.072783828E-1,-8.575876236E0
2.530500953E0,4.776073933E0,5.312066078E-1,-8.547162056E0
2.532611734E0,4.809573650E0,5.790630579E-1,-8.513663292E0
2.534722515E0,4.843072891E0,5.982056856E-1,-8.489734650E0
2.536833296E0,4.871787071E0,6.317051649E-1,-8.456234932E0
2.538944026E0,4.890929699E0,6.556333899E-1,-8.441878319E0
2.541054859E0,4.924428940E0,6.652047038E-1,-8.432307243E0
2.543165640E0,4.924428940E0,6.987041831E-1,-8.417949677E0
2.545276421E0,4.924428940E0,7.082754970E-1,-8.384450912E0
2.547387151E0,4.924428940E0,7.130611539E-1,-8.370093346E0
2.549497984E0,4.929214478E0,7.130611539E-1,-8.365307808E0
2.551608765E0,4.900500774E0,7.034898400E-1,-8.360522270E0
2.553719546E0,4.886143684E0,6.939185858E-1,-8.346165657E0
2.555830276E0,4.867001057E0,6.939185858E-1,-8.346165657E0
2.557941057E0,4.857429981E0,6.843472719E-1,-8.350951195E0
2.560051838E0,4.819144726E0,6.412764788E-1,-8.346165657E0
2.562162619E0,4.809573650E0,6.029912829E-1,-8.360522270E0
2.564273401E0,4.814359188E0,5.455635786E-1,-8.379665375E0
2.566384182E0,4.800002098E0,5.120640397E-1,-8.389236450E0
2.568494963E0,4.795216560E0,4.450650215E-1,-8.389236450E0
2.570605744E0,4.785645485E0,3.876372576E-1,-8.413164139E0
2.572716526E0,4.790431023E0,3.302095234E-1,-8.461020470E0
2.574827307E0,4.766502857E0,2.823530734E-1,-8.489734650E0
2.576938088E0,4.733003139E0,2.105683982E-1,-8.547162056E0
2.579048869E0,4.718646049E0,1.483550072E-1,-8.585447311E0
2.581159651E0,4.670789719E0,1.004985496E-1,-8.618947029E0
2.583270432E0,4.627718925E0,7.657032460E-2,-8.633303642E0
2.585381213E0,4.575077057E0,2.871387079E-2,-8.652446747E0
2.587491994E0,4.522434711E0,0.000000000E0,-8.681160927E0
2.589602776E0,4.474578381E0,-5.742774159E-2,-8.705088615E0
2.591713557E0,4.412364960E0,-7.178468257E-2,-8.695517540E0
2.593824338E0,4.374079704E0,-1.100698411E-1,-8.705088615E0
2.595935119E0,4.335794449E0,-1.435693651E-1,-8.724231720E0
2.598045901E0,4.302295208E0,-1.339980662E-1,-8.743373871E0
2.600156630E0,4.297509670E0,-1.674975902E-1,-8.762516975E0
2.602267411E0,4.283152580E0,-1.818545163E-1,-8.786444664E0
2.604378192E0,4.283152580E0,-1.531406492E-1,-8.776873589E0
2.606488973E0,4.292723656E0,-1.722832322E-1,-8.762516975E0
2.608599755E0,4.302295208E0,-1.770688742E-1,-8.752944946E0
2.610710536E0,4.307080746E0,-1.722832322E-1,-8.724231720E0
2.612821317E0,4.331008911E0,-1.674975902E-1,-8.690732002E0
2.614932098E0,4.335794449E0,-1.866401732E-1,-8.666803360E0
2.617042880E0,4.350151539E0,-1.722832322E-1,-8.666803360E0
2.619153661E0,4.350151539E0,-1.579262912E-1,-8.662017822E0
2.621264442E0,4.354937077E0,-1.435693651E-1,-8.638090134E0
2.623375171E0,4.359723091E0,-1.339980662E-1,-8.638090134E0
2.625486005E0,4.369294167E0,-1.052841991E-1,-8.633303642E0
2.627596786E0,4.374079704E0,-6.221338734E-2,-8.618947029E0
2.629707567E0,4.407579422E0,-5.264209956E-2,-8.647661209E0
2.631818348E0,4.421936035E0,-1.914258115E-2,-8.652446747E0
2.633929130E0,4.445864677E0,1.435693540E-2,-8.652446747E0
2.636039911E0,4.469792843E0,5.264209956E-2,-8.657232285E0
2.638150692E0,4.479363918E0,8.135596663E-2,-8.647661209E0
2.640261473E0,4.508078098E0,1.052841991E-1,-8.633303642E0
2.642372203E0,4.498506546E0,1.100698411E-1,-8.623732567E0
2.644482984E0,4.488935471E0,1.100698411E-1,-8.614161491E0
2.646593817E0,4.493721008E0,9.092725813E-2,-8.604590416E0
2.648704546E0,4.488935471E0,1.052841991E-1,-8.580661774E0
2.650815328E0,4.465006828E0,1.148554832E-1,-8.571090698E0
2.652926109E0,4.460221291E0,1.483550072E-1,-8.537590981E0
2.655036890E0,4.441078663E0,1.483550072E-1,-8.542376518E0
2.657147671E0,4.450650215E0,1.627119333E-1,-8.571090698E0
2.659258453E0,4.436293125E0,1.531406492E-1,-8.590232849E0
2.661369234E0,4.417150497E0,1.435693651E-1,-8.609375954E0
2.663480015E0,4.402793884E0,1.339980662E-1,-8.628518105E0
2.665590796E0,4.407579422E0,1.292124242E-1,-8.657232285E0
2.667701578E0,4.402793884E0,1.292124242E-1,-8.666803360E0
2.669812359E0,4.393222332E0,1.004985496E-1,-8.681160927E0
2.671923140E0,4.383651257E0,1.100698411E-1,-8.700303078E0
2.674033921E0,4.378865242E0,1.100698411E-1,-8.719446182E0
2.676144703E0,4.374079704E0,1.148554832E-1,-8.690732002E0
2.678255484E0,4.364508629E0,1.196411327E-1,-8.690732002E0
2.680366265E0,4.354937077E0,1.244267747E-1,-8.685946465E0
2.682477046E0,4.354937077E0,1.196411327E-1,-8.685946465E0
2.684587776E0,4.326223373E0,1.387837082E-1,-8.662017822E0
2.686698609E0,4.311866283E0,1.292124242E-1,-8.642875671E0
2.688809338E0,4.292723656E0,1.339980662E-1,-8.623732567E0
2.690920119E0,4.292723656E0,1.292124242E-1,-8.604590416E0
2.693030901E0,4.307080746E0,1.435693651E-1,-8.633303642E0
2.695141682E0,4.287938118E0,1.387837082E-1,-8.642875671E0
2.697252463E0,4.268795490E0,1.244267747E-1,-8.652446747E0
2.699363244E0,4.278367043E0,1.196411327E-1,-8.662017822E0
2.701474026E0,4.268795490E0,1.196411327E-1,-8.666803360E0
2.703584807E0,4.278367043E0,8.614161611E-2,-8.666803360E0
2.705695588E0,4.302295208E0,7.178468257E-2,-8.681160927E0
2.707806369E0,4.316651821E0,6.699903309E-2,-8.685946465E0
2.709917151E0,4.311866283E0,5.264209956E-2,-8.709874153E0
2.712027932E0,4.316651821E0,4.307080805E-2,-8.733802795E0
2.714138713E0,4.316651821E0,9.571290575E-3,-8.733802795E0
2.716249494E0,4.326223373E0,1.435693540E-2,-8.738588333E0
2.718360276E0,4.331008911E0,0.000000000E0,-8.724231720E0
2.720471057E0,4.316651821E0,9.571290575E-3,-8.700303078E0
2.722581838E0,4.331008911E0,1.435693540E-2,-8.695517540E0
2.724692619E0,4.311866283E0,4.785645287E-3,-8.676374435E0
2.726803348E0,4.311866283E0,1.914258115E-2,-8.666803360E0
2.728914130E0,4.307080746E0,9.571290575E-3,-8.657232285E0
2.731024911E0,4.321437836E0,4.785645287E-3,-8.662017822E0
2.733135692E0,4.326223373E0,2.392822690E-2,-8.633303642E0
2.735246473E0,4.326223373E0,3.828516230E-2,-8.595019341E0
2.737357255E0,4.359723091E0,5.742774159E-2,-8.595019341E0
2.739468036E0,4.359723091E0,7.657032460E-2,-8.599804878E0
2.741578817E0,4.388436794E0,1.004985496E-1,-8.604590416E0
2.743689598E0,4.421936035E0,1.196411327E-1,-8.618947029E0
2.745800380E0,4.445864677E0,1.627119333E-1,-8.657232285E0
2.747911161E0,4.474578381E0,1.770688742E-1,-8.681160927E0
2.750021942E0,4.508078098E0,2.009970993E-1,-8.714659691E0
2.752132723E0,4.551148891E0,2.249253243E-1,-8.748159409E0
2.754243505E0,4.584648132E0,2.344966233E-1,-8.776873589E0
2.756354286E0,4.613361835E0,2.297109663E-1,-8.791230202E0
2.758465067E0,4.637290478E0,2.488535494E-1,-8.800801277E0
2.760575848E0,4.646861553E0,2.536391914E-1,-8.786444664E0
2.762686630E0,4.651647091E0,2.536391914E-1,-8.791230202E0
2.764797411E0,4.642076015E0,2.775674164E-1,-8.805587769E0
2.766908192E0,4.656432629E0,2.919243574E-1,-8.800801277E0
2.769018973E0,4.646861553E0,2.775674164E-1,-8.767302513E0
2.771129755E0,4.618147850E0,3.014956415E-1,-8.752944946E0
2.773240484E0,4.618147850E0,2.967100143E-1,-8.729017258E0
2.775351265E0,4.603790760E0,3.062812984E-1,-8.714659691E0
2.777462046E0,4.608576298E0,3.158525825E-1,-8.695517540E0
2.779572828E0,4.618147850E0,3.206382394E-1,-8.685946465E0
2.781683609E0,4.627718925E0,3.110669553E-1,-8.671588898E0
2.783794390E0,4.618147850E0,3.014956415E-1,-8.700303078E0
2.785905119E0,4.642076015E0,2.727817893E-1,-8.714659691E0
2.788015953E0,4.656432629E0,2.679961324E-1,-8.714659691E0
2.790126734E0,4.661218643E0,2.632105052E-1,-8.719446182E0
2.792237515E0,4.646861553E0,2.679961324E-1,-8.719446182E0
2.794348296E0,4.632504463E0,2.727817893E-1,-8.709874153E0
2.796459078E0,4.642076015E0,2.488535494E-1,-8.681160927E0
2.798569859E0,4.618147850E0,2.344966233E-1,-8.671588898E0
2.800680640E0,4.622933388E0,2.344966233E-1,-8.662017822E0
2.802791421E0,4.603790760E0,2.153540403E-1,-8.657232285E0
2.804902203E0,4.579862595E0,2.344966233E-1,-8.662017822E0
2.807012984E0,4.575077057E0,2.153540403E-1,-8.642875671E0
2.809123765E0,4.575077057E0,2.201396823E-1,-8.647661209E0
2.811234546E0,4.532006264E0,2.105683982E-1,-8.657232285E0
2.813345328E0,4.508078098E0,2.105683982E-1,-8.676374435E0
2.815456057E0,4.493721008E0,1.962114573E-1,-8.709874153E0
2.817566838E0,4.465006828E0,1.962114573E-1,-8.733802795E0
2.819677619E0,4.417150497E0,1.770688742E-1,-8.772088051E0
2.821788401E0,4.364508629E0,1.722832322E-1,-8.805587769E0
2.823899182E0,4.326223373E0,1.579262912E-1,-8.824729919E0
2.826009963E0,4.268795490E0,1.387837082E-1,-8.819944382E0
2.828120744E0,4.211368084E0,1.196411327E-1,-8.829515457E0
2.830231526E0,4.149154663E0,1.004985496E-1,-8.815158844E0
2.832342307E0,4.072584152E0,7.178468257E-2,-8.796015739E0
2.834453088E0,3.957728624E0,-2.392822690E-2,-8.800801277E0
2.836563869E0,3.756731510E0,-1.914258152E-1,-8.843872070E0
2.838674651E0,3.651447296E0,-2.440679073E-1,-8.834300995E0
2.840785432E0,3.689732552E0,-2.536391914E-1,-8.805587769E0
2.842896213E0,3.761517286E0,-1.914258152E-1,-8.786444664E0
2.845006994E0,3.833301783E0,-1.435693651E-1,-8.757730484E0
2.847117776E0,3.876372576E0,-1.148554832E-1,-8.786444664E0
2.849228557E0,3.876372576E0,-7.178468257E-2,-8.824729919E0
2.851339338E0,3.847658873E0,-1.004985496E-1,-8.877371788E0
2.853450119E0,3.833301783E0,-1.148554832E-1,-8.867800713E0
2.855560901E0,3.847658873E0,-1.435693651E-1,-8.863015175E0
2.857671682E0,3.876372576E0,-1.100698411E-1,-8.872586250E0
2.859782463E0,3.938585997E0,-1.004985496E-1,-8.858229637E0
2.861893192E0,4.005585194E0,-8.135596663E-2,-8.863015175E0
2.864003973E0,4.039084435E0,-6.699903309E-2,-8.882157326E0
2.866114755E0,4.096512318E0,-4.785645381E-2,-8.886942863E0
2.868225484E0,4.158725739E0,-1.914258115E-2,-8.882157326E0
2.870336317E0,4.225724697E0,-4.785645287E-3,-8.891729355E0
2.872447098E0,4.268795490E0,2.392822690E-2,-8.886942863E0
2.874557880E0,4.331008911E0,6.221338734E-2,-8.863015175E0
2.876668661E0,4.364508629E0,6.699903309E-2,-8.843872070E0
2.878779442E0,4.412364960E0,7.178468257E-2,-8.819944382E0
2.880890223E0,4.441078663E0,1.148554832E-1,-8.772088051E0
2.883001005E0,4.474578381E0,1.387837082E-1,-8.752944946E0
2.885111786E0,4.498506546E0,1.579262912E-1,-8.705088615E0
2.887222567E0,4.503292084E0,1.818545163E-1,-8.676374435E0
2.889333348E0,4.522434711E0,1.962114573E-1,-8.623732567E0
2.891444130E0,4.551148891E0,2.105683982E-1,-8.609375954E0
2.893554911E0,4.555934429E0,2.153540403E-1,-8.590232849E0
2.895665692E0,4.555934429E0,2.297109663E-1,-8.561519623E0
2.897776473E0,4.555934429E0,2.249253243E-1,-8.551948547E0
2.899887255E0,4.579862595E0,2.297109663E-1,-8.551948547E0
2.901998036E0,4.579862595E0,2.201396823E-1,-8.556734085E0
2.904108765E0,4.565505505E0,2.249253243E-1,-8.585447311E0
2.906219546E0,4.594219685E0,2.153540403E-1,-8.614161491E0
2.908330328E0,4.584648132E0,2.009970993E-1,-8.647661209E0
2.910441109E0,4.579862595E0,2.153540403E-1,-8.652446747E0
2.912551890E0,4.555934429E0,2.201396823E-1,-8.681160927E0
2.914662671E0,4.565505505E0,2.297109663E-1,-8.695517540E0
2.916773453E0,4.546362877E0,2.297109663E-1,-8.695517540E0
2.918884234E0,4.522434711E0,2.392822653E-1,-8.695517540E0
2.920995015E0,4.522434711E0,2.344966233E-1,-8.695517540E0
2.923105796E0,4.493721008E0,2.201396823E-1,-8.700303078E0
2.925216578E0,4.493721008E0,2.201396823E-1,-8.685946465E0
2.927327359E0,4.469792843E0,2.009970993E-1,-8.705088615E0
2.929438140E0,4.436293125E0,1.962114573E-1,-8.700303078E0
2.931548921E0,4.407579422E0,1.962114573E-1,-8.705088615E0
2.933659703E0,4.388436794E0,1.579262912E-1,-8.733802795E0
2.935770484E0,4.369294167E0,1.579262912E-1,-8.743373871E0
2.937881265E0,4.331008911E0,1.627119333E-1,-8.772088051E0
2.939992046E0,4.321437836E0,1.531406492E-1,-8.791230202E0
2.942102828E0,4.297509670E0,1.531406492E-1,-8.843872070E0
2.944213557E0,4.283152580E0,1.483550072E-1,-8.863015175E0
2.946324390E0,4.268795490E0,1.435693651E-1,-8.915657043E0
2.948435119E0,4.249652863E0,1.244267747E-1,-8.944371223E0
2.950545901E0,4.230510235E0,1.244267747E-1,-8.982656479E0
2.952656682E0,4.225724697E0,8.135596663E-2,-9.006584167E0
2.954767463E0,4.201796532E0,7.657032460E-2,-8.997013092E0
2.956878244E0,4.201796532E0,3.828516230E-2,-8.963513374E0
2.958989026E0,4.206582069E0,9.571290575E-3,-8.968298912E0
2.961099807E0,4.201796532E0,-4.785645287E-3,-8.934800148E0
2.963210588E0,4.216153622E0,-3.828516230E-2,-8.891729355E0
2.965321369E0,4.225724697E0,-7.178468257E-2,-8.853444099E0
2.967432151E0,4.230510235E0,-1.100698411E-1,-8.824729919E0
2.969542932E0,4.259224415E0,-1.387837082E-1,-8.815158844E0
2.971653713E0,4.264009953E0,-1.722832322E-1,-8.796015739E0
2.973764494E0,4.273581028E0,-2.009970993E-1,-8.791230202E0
2.975875276E0,4.297509670E0,-2.392822653E-1,-8.805587769E0
2.977986057E0,4.287938118E0,-2.823530734E-1,-8.796015739E0
2.980096838E0,4.302295208E0,-2.919243574E-1,-8.786444664E0
2.982207619E0,4.302295208E0,-3.158525825E-1,-8.772088051E0
2.984318401E0,4.283152580E0,-3.541377485E-1,-8.752944946E0
2.986429182E0,4.292723656E0,-3.589234054E-1,-8.733802795E0
2.988539963E0,4.287938118E0,-4.019941986E-1,-8.752944946E0
2.990650692E0,4.264009953E0,-4.211367965E-1,-8.733802795E0
2.992761526E0,4.264009953E0,-4.402793646E-1,-8.724231720E0
2.994872255E0,4.264009953E0,-4.642075896E-1,-8.724231720E0
2.996982984E0,4.244867325E0,-4.881358147E-1,-8.743373871E0
2.999093817E0,4.244867325E0,-5.264210105E-1,-8.738588333E0
3.001204598E0,4.254438877E0,-5.359922647E-1,-8.752944946E0
3.003315380E0,4.240081787E0,-5.647061467E-1,-8.781659126E0
3.005426161E0,4.225724697E0,-5.934200287E-1,-8.796015739E0
3.007536942E0,4.220939159E0,-6.029912829E-1,-8.796015739E0
3.009647723E0,4.201796532E0,-6.221339107E-1,-8.805587769E0
3.011758505E0,4.197010994E0,-6.460621357E-1,-8.819944382E0
3.013869286E0,4.187439442E0,-6.699903607E-1,-8.834300995E0
3.015980067E0,4.153940201E0,-7.082754970E-1,-8.805587769E0
3.018090848E0,4.139583111E0,-7.226324677E-1,-8.815158844E0
3.020201630E0,4.110869408E0,-7.322037220E-1,-8.781659126E0
3.022312411E0,4.082155228E0,-7.561319470E-1,-8.786444664E0
3.024423192E0,4.077369690E0,-7.800601721E-1,-8.791230202E0
3.026533973E0,4.072584152E0,-7.992027402E-1,-8.786444664E0
3.028644755E0,4.077369690E0,-8.231309652E-1,-8.781659126E0
3.030755536E0,4.067798615E0,-8.231309652E-1,-8.781659126E0
3.032866317E0,4.058227062E0,-8.279166222E-1,-8.762516975E0
3.034977046E0,4.053441525E0,-8.327022791E-1,-8.729017258E0
3.037087880E0,4.039084435E0,-8.566305041E-1,-8.724231720E0
3.039198609E0,4.043870449E0,-8.518448472E-1,-8.762516975E0
3.041309390E0,4.058227062E0,-8.374879360E-1,-8.781659126E0
3.043420171E0,4.053441525E0,-8.470591903E-1,-8.781659126E0
3.045530953E0,4.058227062E0,-8.566305041E-1,-8.800801277E0
3.047641734E0,4.067798615E0,-8.518448472E-1,-8.824729919E0
3.049752515E0,4.063013077E0,-8.566305041E-1,-8.839086533E0
3.051863296E0,4.082155228E0,-8.757730722E-1,-8.886942863E0
3.053974078E0,4.086941242E0,-8.709874153E-1,-8.882157326E0
3.056084859E0,4.101297855E0,-8.709874153E-1,-8.920442581E0
3.058195640E0,4.110869408E0,-8.709874153E-1,-8.906085968E0
3.060306421E0,4.106083870E0,-8.470591903E-1,-8.891729355E0
3.062417203E0,4.106083870E0,-8.231309652E-1,-8.882157326E0
3.064527984E0,4.120440483E0,-8.231309652E-1,-8.882157326E0
3.066638765E0,4.101297855E0,-8.039883971E-1,-8.853444099E0
3.068749546E0,4.101297855E0,-7.704889178E-1,-8.839086533E0
3.070860328E0,4.110869408E0,-7.704889178E-1,-8.805587769E0
3.072971109E0,4.110869408E0,-7.609176040E-1,-8.796015739E0
3.075081890E0,4.110869408E0,-7.274180651E-1,-8.781659126E0
3.077192619E0,4.115654945E0,-6.891329288E-1,-8.796015739E0
3.079303401E0,4.130012035E0,-6.652047038E-1,-8.810373306E0
3.081414182E0,4.149154663E0,-6.221339107E-1,-8.791230202E0
3.083524963E0,4.158725739E0,-6.029912829E-1,-8.810373306E0
3.085635744E0,4.158725739E0,-5.790630579E-1,-8.815158844E0
3.087746526E0,4.182653904E0,-5.503492355E-1,-8.829515457E0
3.089857307E0,4.197010994E0,-5.312066078E-1,-8.839086533E0
3.091968088E0,4.216153622E0,-4.977070987E-1,-8.843872070E0
3.094078869E0,4.230510235E0,-4.785645306E-1,-8.829515457E0
3.096189651E0,4.244867325E0,-4.642075896E-1,-8.819944382E0
3.098300432E0,4.268795490E0,-4.594219327E-1,-8.834300995E0
3.100411213E0,4.283152580E0,-4.642075896E-1,-8.819944382E0
3.102521994E0,4.302295208E0,-4.642075896E-1,-8.781659126E0
3.104632776E0,4.331008911E0,-4.881358147E-1,-8.762516975E0
3.106743557E0,4.345366001E0,-4.881358147E-1,-8.748159409E0
3.108854286E0,4.354937077E0,-4.977070987E-1,-8.705088615E0
3.110965119E0,4.374079704E0,-5.168496966E-1,-8.690732002E0
3.113075901E0,4.369294167E0,-5.216353536E-1,-8.652446747E0
3.115186682E0,4.369294167E0,-5.120640397E-1,-8.652446747E0
3.117297411E0,4.374079704E0,-5.359922647E-1,-8.633303642E0
3.119408244E0,4.354937077E0,-5.503492355E-1,-8.628518105E0
3.121519026E0,4.369294167E0,-5.168496966E-1,-8.633303642E0
3.123629807E0,4.331008911E0,-5.359922647E-1,-8.662017822E0
3.125740536E0,4.316651821E0,-5.216353536E-1,-8.690732002E0
3.127851317E0,4.302295208E0,-5.216353536E-1,-8.714659691E0
3.129962098E0,4.283152580E0,-5.120640397E-1,-8.752944946E0
3.132072880E0,4.273581028E0,-4.737788737E-1,-8.805587769E0
3.134183661E0,4.249652863E0,-4.737788737E-1,-8.834300995E0
3.136294442E0,4.201796532E0,-4.833501875E-1,-8.867800713E0
3.138405223E0,4.211368084E0,-4.642075896E-1,-8.896514893E0
3.140516005E0,4.187439442E0,-4.354937077E-1,-8.906085968E0
3.142626786E0,4.182653904E0,-4.259224236E-1,-8.925228119E0
3.144737567E0,4.149154663E0,-4.163511395E-1,-8.915657043E0
3.146848348E0,4.139583111E0,-3.924229145E-1,-8.910871506E0
3.148959130E0,4.144368649E0,-3.684946895E-1,-8.901300430E0
3.151069911E0,4.134797573E0,-3.732803464E-1,-8.910871506E0
3.153180692E0,4.110869408E0,-3.493520916E-1,-8.886942863E0
3.155291473E0,4.120440483E0,-3.349951804E-1,-8.877371788E0
3.157402255E0,4.115654945E0,-3.062812984E-1,-8.882157326E0
3.159513036E0,4.120440483E0,-3.206382394E-1,-8.901300430E0
3.161623765E0,4.120440483E0,-2.919243574E-1,-8.906085968E0
3.163734546E0,4.096512318E0,-2.823530734E-1,-8.906085968E0
3.165845328E0,4.120440483E0,-2.727817893E-1,-8.896514893E0
3.167956109E0,4.110869408E0,-2.536391914E-1,-8.915657043E0
3.170066890E0,4.115654945E0,-2.249253243E-1,-8.920442581E0
3.172177671E0,4.115654945E0,-2.057827413E-1,-8.906085968E0
3.174288453E0,4.115654945E0,-1.866401732E-1,-8.896514893E0
3.176399234E0,4.096512318E0,-1.722832322E-1,-8.858229637E0
3.178510015E0,4.115654945E0,-1.627119333E-1,-8.858229637E0
3.180620796E0,4.125226021E0,-1.148554832E-1,-8.829515457E0
3.182731578E0,4.144368649E0,-1.052841991E-1,-8.805587769E0
3.184842359E0,4.153940201E0,-8.614161611E-2,-8.791230202E0
3.186953140E0,4.168296814E0,-5.742774159E-2,-8.757730484E0
3.189063921E0,4.173082829E0,-3.349951655E-2,-8.738588333E0
3.191174703E0,4.187439442E0,4.785645287E-3,-8.705088615E0
3.193285484E0,4.201796532E0,9.571290575E-3,-8.681160927E0
3.195396265E0,4.220939159E0,2.871387079E-2,-8.666803360E0
3.197507046E0,4.225724697E0,6.221338734E-2,-8.652446747E0
3.199617828E0,4.235296249E0,1.004985496E-1,-8.628518105E0
3.201728609E0,4.244867325E0,1.148554832E-1,-8.638090134E0
3.203839390E0,4.259224415E0,1.435693651E-1,-8.633303642E0
3.205950171E0,4.249652863E0,1.531406492E-1,-8.666803360E0
3.208060901E0,4.244867325E0,1.674975902E-1,-8.685946465E0
3.210171682E0,4.273581028E0,1.914258152E-1,-8.695517540E0
3.212282463E0,4.268795490E0,2.105683982E-1,-8.719446182E0
3.214393244E0,4.268795490E0,2.392822653E-1,-8.762516975E0
3.216504026E0,4.264009953E0,2.488535494E-1,-8.786444664E0
3.218614807E0,4.268795490E0,2.632105052E-1,-8.796015739E0
3.220725588E0,4.259224415E0,2.584248483E-1,-8.824729919E0
3.222836369E0,4.249652863E0,2.584248483E-1,-8.834300995E0
3.224947151E0,4.254438877E0,2.679961324E-1,-8.834300995E0
3.227057932E0,4.230510235E0,2.632105052E-1,-8.796015739E0
3.229168713E0,4.216153622E0,2.679961324E-1,-8.781659126E0
3.231279494E0,4.206582069E0,2.632105052E-1,-8.776873589E0
3.233390276E0,4.201796532E0,2.440679073E-1,-8.752944946E0
3.235501057E0,4.182653904E0,2.297109663E-1,-8.748159409E0
3.237611838E0,4.192225456E0,2.392822653E-1,-8.767302513E0
3.239722619E0,4.182653904E0,2.009970993E-1,-8.786444664E0
3.241833401E0,4.173082829E0,1.722832322E-1,-8.810373306E0
3.243944182E0,4.182653904E0,1.531406492E-1,-8.815158844E0
3.246054963E0,4.173082829E0,1.435693651E-1,-8.834300995E0
3.248165692E0,4.173082829E0,1.148554832E-1,-8.877371788E0
3.250276473E0,4.163511276E0,1.004985496E-1,-8.853444099E0
3.252387255E0,4.158725739E0,7.178468257E-2,-8.882157326E0
3.254498036E0,4.134797573E0,4.307080805E-2,-8.872586250E0
3.256608817E0,4.125226021E0,2.871387079E-2,-8.867800713E0
3.258719598E0,4.106083870E0,4.785645287E-3,-8.839086533E0
3.260830380E0,4.091726780E0,-1.914258115E-2,-8.819944382E0
3.262941161E0,4.072584152E0,-4.307080805E-2,-8.815158844E0
3.265051942E0,4.048655987E0,-5.742774159E-2,-8.786444664E0
3.267162723E0,4.053441525E0,-8.614161611E-2,-8.767302513E0
3.269273505E0,4.053441525E0,-1.148554832E-1,-8.757730484E0
3.271384286E0,4.053441525E0,-1.483550072E-1,-8.733802795E0
3.273495067E0,4.058227062E0,-1.818545163E-1,-8.729017258E0
3.275605848E0,4.063013077E0,-2.105683982E-1,-8.738588333E0
3.277716630E0,4.072584152E0,-2.297109663E-1,-8.733802795E0
3.279827411E0,4.086941242E0,-2.871387303E-1,-8.748159409E0
3.281938192E0,4.139583111E0,-3.206382394E-1,-8.752944946E0
3.284048973E0,4.144368649E0,-3.541377485E-1,-8.762516975E0
3.286159755E0,4.153940201E0,-3.732803464E-1,-8.772088051E0
3.288270536E0,4.173082829E0,-4.019941986E-1,-8.772088051E0
3.290381265E0,4.168296814E0,-4.402793646E-1,-8.772088051E0
3.292492046E0,4.173082829E0,-4.594219327E-1,-8.786444664E0
3.294602828E0,4.153940201E0,-4.642075896E-1,-8.796015739E0
3.296713609E0,4.153940201E0,-4.642075896E-1,-8.810373306E0
3.298824390E0,4.139583111E0,-5.072783828E-1,-8.796015739E0
3.300935171E0,4.139583111E0,-5.216353536E-1,-8.815158844E0
3.303045953E0,4.139583111E0,-5.359922647E-1,-8.829515457E0
3.305156734E0,4.134797573E0,-5.694918036E-1,-8.858229637E0
3.307267515E0,4.130012035E0,-5.790630579E-1,-8.891729355E0
3.309378296E0,4.130012035E0,-5.742774606E-1,-8.877371788E0
3.311489078E0,4.120440483E0,-6.221339107E-1,-8.882157326E0
3.313599859E0,4.115654945E0,-6.412764788E-1,-8.910871506E0
3.315710640E0,4.096512318E0,-6.412764788E-1,-8.910871506E0
3.317821421E0,4.091726780E0,-6.604190469E-1,-8.920442581E0
3.319932203E0,4.067798615E0,-6.412764788E-1,-8.930013657E0
3.322042984E0,4.053441525E0,-6.508477330E-1,-8.949156761E0
3.324153765E0,4.034298897E0,-6.795616150E-1,-8.958727837E0
3.326264546E0,4.010370731E0,-6.699903607E-1,-8.939585686E0
3.328375328E0,4.000799656E0,-6.891329288E-1,-8.939585686E0
3.330486109E0,3.972085476E0,-6.795616150E-1,-8.944371223E0
3.332596890E0,3.957728624E0,-7.034898400E-1,-8.925228119E0
3.334707619E0,3.957728624E0,-6.747759581E-1,-8.915657043E0
3.336818348E0,3.938585997E0,-6.699903607E-1,-8.901300430E0
3.338929182E0,3.933800459E0,-6.556333899E-1,-8.872586250E0
3.341039963E0,3.967299938E0,-6.317051649E-1,-8.891729355E0
3.343150744E0,3.986442566E0,-5.982056856E-1,-8.886942863E0
3.345261526E0,3.986442566E0,-5.982056856E-1,-8.872586250E0
3.347372307E0,4.024727821E0,-5.838487148E-1,-8.891729355E0
3.349483088E0,4.029513359E0,-5.264210105E-1,-8.925228119E0
3.351593869E0,4.063013077E0,-5.072783828E-1,-8.920442581E0
3.353704651E0,4.086941242E0,-5.072783828E-1,-8.939585686E0
3.355815432E0,4.091726780E0,-4.737788737E-1,-8.939585686E0
3.357926213E0,4.106083870E0,-4.737788737E-1,-8.910871506E0
3.360036994E0,4.101297855E0,-4.689932466E-1,-8.906085968E0
3.362147776E0,4.101297855E0,-4.594219327E-1,-8.872586250E0
3.364258557E0,4.101297855E0,-4.642075896E-1,-8.848658562E0
3.366369338E0,4.106083870E0,-4.402793646E-1,-8.824729919E0
3.368480119E0,4.120440483E0,-4.259224236E-1,-8.762516975E0
3.370590901E0,4.139583111E0,-4.307080805E-1,-8.738588333E0
3.372701630E0,4.134797573E0,-4.211367965E-1,-8.719446182E0
3.374812411E0,4.163511276E0,-4.259224236E-1,-8.700303078E0
3.376923192E0,4.197010994E0,-4.259224236E-1,-8.685946465E0
3.379033973E0,4.211368084E0,-4.259224236E-1,-8.671588898E0
3.381144755E0,4.225724697E0,-4.067798555E-1,-8.700303078E0
3.383255536E0,4.254438877E0,-4.067798555E-1,-8.681160927E0
3.385366317E0,4.273581028E0,-4.163511395E-1,-8.695517540E0
3.387477098E0,4.278367043E0,-3.972085714E-1,-8.690732002E0
3.389587880E0,4.254438877E0,-3.924229145E-1,-8.705088615E0
3.391698661E0,4.249652863E0,-3.876372576E-1,-8.709874153E0
3.393809442E0,4.220939159E0,-3.828516304E-1,-8.724231720E0
3.395920223E0,4.192225456E0,-3.684946895E-1,-8.719446182E0
3.398031005E0,4.158725739E0,-3.541377485E-1,-8.748159409E0
3.400141786E0,4.139583111E0,-3.397808075E-1,-8.767302513E0
3.402252567E0,4.115654945E0,-3.302095234E-1,-8.791230202E0
3.404363348E0,4.101297855E0,-2.967100143E-1,-8.815158844E0
3.406474130E0,4.086941242E0,-2.727817893E-1,-8.824729919E0
3.408584911E0,4.082155228E0,-2.679961324E-1,-8.877371788E0
3.410695692E0,4.091726780E0,-2.344966233E-1,-8.901300430E0
3.412806473E0,4.091726780E0,-2.105683982E-1,-8.920442581E0
3.414917203E0,4.082155228E0,-2.057827413E-1,-8.925228119E0
3.417027984E0,4.086941242E0,-1.818545163E-1,-8.949156761E0
3.419138765E0,4.072584152E0,-1.674975902E-1,-8.944371223E0
3.421249546E0,4.072584152E0,-1.435693651E-1,-8.920442581E0
3.423360328E0,4.048655987E0,-1.483550072E-1,-8.910871506E0
3.425471109E0,4.058227062E0,-1.387837082E-1,-8.886942863E0
3.427581890E0,4.048655987E0,-1.387837082E-1,-8.882157326E0
3.429692671E0,4.043870449E0,-1.244267747E-1,-8.863015175E0
3.431803453E0,4.039084435E0,-1.339980662E-1,-8.867800713E0
3.433914234E0,4.029513359E0,-1.387837082E-1,-8.863015175E0
3.436025015E0,4.039084435E0,-1.244267747E-1,-8.858229637E0
3.438135796E0,4.048655987E0,-1.052841991E-1,-8.839086533E0
3.440246578E0,4.058227062E0,-1.052841991E-1,-8.853444099E0
3.442357359E0,4.072584152E0,-1.004985496E-1,-8.848658562E0
3.444468140E0,4.106083870E0,-9.571290761E-2,-8.867800713E0
3.446578921E0,4.134797573E0,-8.135596663E-2,-8.853444099E0
3.448689703E0,4.149154663E0,-6.221338734E-2,-8.867800713E0
3.450800484E0,4.163511276E0,-5.264209956E-2,-8.882157326E0
3.452911265E0,4.182653904E0,-4.307080805E-2,-8.877371788E0
3.455022046E0,4.182653904E0,-5.264209956E-2,-8.853444099E0
3.457132828E0,4.177868366E0,-1.914258115E-2,-8.829515457E0
3.459243557E0,4.177868366E0,-9.571290575E-3,-8.824729919E0
3.461354338E0,4.173082829E0,-9.571290575E-3,-8.791230202E0
3.463465119E0,4.177868366E0,9.571290575E-3,-8.786444664E0
3.465575901E0,4.158725739E0,0.000000000E0,-8.791230202E0
3.467686682E0,4.153940201E0,1.435693540E-2,-8.767302513E0
3.469797463E0,4.144368649E0,9.571290575E-3,-8.781659126E0
3.471908244E0,4.144368649E0,2.392822690E-2,-8.796015739E0
3.474019026E0,4.144368649E0,1.435693540E-2,-8.800801277E0
3.476129807E0,4.153940201E0,1.914258115E-2,-8.834300995E0
3.478240588E0,4.149154663E0,1.435693540E-2,-8.863015175E0
3.480351369E0,4.144368649E0,2.871387079E-2,-8.853444099E0
3.482462151E0,4.158725739E0,3.349951655E-2,-8.848658562E0
3.484572932E0,4.134797573E0,2.871387079E-2,-8.848658562E0
3.486683713E0,4.120440483E0,3.349951655E-2,-8.848658562E0
3.488794494E0,4.115654945E0,9.571290575E-3,-8.815158844E0
3.490905276E0,4.130012035E0,9.571290575E-3,-8.796015739E0
3.493016057E0,4.130012035E0,9.571290575E-3,-8.772088051E0
3.495126838E0,4.125226021E0,0.000000000E0,-8.748159409E0
3.497237619E0,4.125226021E0,-9.571290575E-3,-8.752944946E0
3.499348401E0,4.115654945E0,-4.785645287E-3,-8.743373871E0
3.501459182E0,4.130012035E0,9.571290575E-3,-8.743373871E0
3.503569911E0,4.130012035E0,0.000000000E0,-8.743373871E0
3.505680692E0,4.106083870E0,4.785645287E-3,-8.743373871E0
3.507791473E0,4.120440483E0,-9.571290575E-3,-8.733802795E0
3.509902255E0,4.125226021E0,-1.435693540E-2,-8.748159409E0
3.512013036E0,4.101297855E0,-9.571290575E-3,-8.781659126E0
3.514123817E0,4.096512318E0,-9.571290575E-3,-8.772088051E0
3.516234598E0,4.086941242E0,-1.435693540E-2,-8.796015739E0
3.518345380E0,4.077369690E0,-2.392822690E-2,-8.791230202E0
3.520456161E0,4.077369690E0,-3.349951655E-2,-8.786444664E0
3.522566942E0,4.077369690E0,-9.571290575E-3,-8.791230202E0
3.524677723E0,4.053441525E0,-3.349951655E-2,-8.776873589E0
3.526788505E0,4.053441525E0,-2.871387079E-2,-8.819944382E0
3.528899286E0,4.077369690E0,-3.828516230E-2,-8.800801277E0
3.531010067E0,4.096512318E0,-3.828516230E-2,-8.796015739E0
3.533120848E0,4.106083870E0,-6.221338734E-2,-8.819944382E0
3.535231630E0,4.120440483E0,-7.657032460E-2,-8.815158844E0
3.537342411E0,4.144368649E0,-9.092725813E-2,-8.805587769E0
3.539453192E0,4.163511276E0,-1.148554832E-1,-8.800801277E0
3.541563973E0,4.168296814E0,-1.292124242E-1,-8.800801277E0
3.543674703E0,4.158725739E0,-1.435693651E-1,-8.791230202E0
3.545785484E0,4.173082829E0,-1.722832322E-1,-8.815158844E0
3.547896265E0,4.163511276E0,-1.722832322E-1,-8.805587769E0
3.550007046E0,4.153940201E0,-1.770688742E-1,-8.810373306E0
3.552117828E0,4.153940201E0,-1.866401732E-1,-8.781659126E0
3.554228609E0,4.153940201E0,-1.818545163E-1,-8.757730484E0
3.556339390E0,4.139583111E0,-1.962114573E-1,-8.781659126E0
3.558450171E0,4.125226021E0,-1.962114573E-1,-8.796015739E0
3.560560953E0,4.144368649E0,-1.962114573E-1,-8.829515457E0
3.562671734E0,4.158725739E0,-1.962114573E-1,-8.819944382E0
3.564782515E0,4.182653904E0,-1.962114573E-1,-8.853444099E0
3.566893296E0,4.187439442E0,-1.914258152E-1,-8.858229637E0
3.569004078E0,4.211368084E0,-2.009970993E-1,-8.853444099E0
3.571114859E0,4.230510235E0,-1.962114573E-1,-8.824729919E0
3.573225640E0,4.230510235E0,-2.153540403E-1,-8.843872070E0
3.575336421E0,4.235296249E0,-2.249253243E-1,-8.829515457E0
3.577447203E0,4.235296249E0,-2.440679073E-1,-8.819944382E0
3.579557984E0,4.249652863E0,-2.632105052E-1,-8.796015739E0
3.581668713E0,4.249652863E0,-2.632105052E-1,-8.791230202E0
3.583779546E0,4.244867325E0,-2.632105052E-1,-8.776873589E0
3.585890276E0,4.230510235E0,-2.727817893E-1,-8.781659126E0
3.588001057E0,4.235296249E0,-3.062812984E-1,-8.752944946E0
3.590111838E0,4.235296249E0,-3.254238665E-1,-8.738588333E0
3.592222619E0,4.230510235E0,-3.493520916E-1,-8.729017258E0
3.594333401E0,4.259224415E0,-3.493520916E-1,-8.700303078E0
3.596444182E0,4.259224415E0,-3.541377485E-1,-8.719446182E0
3.598554963E0,4.273581028E0,-3.684946895E-1,-8.700303078E0
3.600665744E0,4.297509670E0,-3.684946895E-1,-8.719446182E0
3.602776526E0,4.316651821E0,-3.780659735E-1,-8.738588333E0
3.604887307E0,4.331008911E0,-3.637090325E-1,-8.733802795E0
3.606998088E0,4.335794449E0,-3.637090325E-1,-8.776873589E0
3.609108869E0,4.354937077E0,-3.780659735E-1,-8.786444664E0
3.611219651E0,4.359723091E0,-3.589234054E-1,-8.781659126E0
3.613330432E0,4.354937077E0,-3.349951804E-1,-8.819944382E0
3.615441213E0,4.354937077E0,-3.254238665E-1,-8.843872070E0
3.617551994E0,4.354937077E0,-3.158525825E-1,-8.839086533E0
3.619662776E0,4.326223373E0,-2.967100143E-1,-8.824729919E0
3.621773557E0,4.307080746E0,-2.632105052E-1,-8.853444099E0
3.623884338E0,4.287938118E0,-2.632105052E-1,-8.843872070E0
3.625995119E0,4.268795490E0,-2.536391914E-1,-8.867800713E0
3.628105848E0,4.264009953E0,-2.297109663E-1,-8.877371788E0
3.630216630E0,4.268795490E0,-2.392822653E-1,-8.858229637E0
3.632327411E0,4.240081787E0,-2.249253243E-1,-8.886942863E0
3.634438192E0,4.254438877E0,-2.249253243E-1,-8.891729355E0
3.636548973E0,4.254438877E0,-2.201396823E-1,-8.901300430E0
3.638659755E0,4.254438877E0,-2.249253243E-1,-8.901300430E0
3.640770536E0,4.259224415E0,-2.297109663E-1,-8.896514893E0
3.642881317E0,4.278367043E0,-2.009970993E-1,-8.867800713E0
3.644992098E0,4.273581028E0,-2.009970993E-1,-8.882157326E0
3.647102880E0,4.287938118E0,-2.201396823E-1,-8.834300995E0
3.649213661E0,4.287938118E0,-2.105683982E-1,-8.819944382E0
3.651324442E0,4.287938118E0,-1.914258152E-1,-8.791230202E0
3.653435223E0,4.292723656E0,-2.057827413E-1,-8.767302513E0
3.655546005E0,4.283152580E0,-1.914258152E-1,-8.772088051E0
3.657656786E0,4.297509670E0,-1.866401732E-1,-8.748159409E0
3.659767567E0,4.283152580E0,-1.722832322E-1,-8.738588333E0
3.661878348E0,4.283152580E0,-1.627119333E-1,-8.762516975E0
3.663989130E0,4.268795490E0,-1.627119333E-1,-8.767302513E0
3.666099911E0,4.273581028E0,-1.148554832E-1,-8.762516975E0
3.668210640E0,4.268795490E0,-1.052841991E-1,-8.757730484E0
3.670321421E0,4.259224415E0,-1.004985496E-1,-8.748159409E0
3.672432203E0,4.249652863E0,-9.571290761E-2,-8.733802795E0
3.674543036E0,4.268795490E0,-9.092725813E-2,-8.748159409E0
3.676653765E0,4.264009953E0,-9.092725813E-2,-8.752944946E0
3.678764546E0,4.283152580E0,-8.135596663E-2,-8.743373871E0
3.680875328E0,4.287938118E0,-5.742774159E-2,-8.762516975E0
3.682986109E0,4.302295208E0,-5.742774159E-2,-8.743373871E0
3.685096838E0,4.307080746E0,-4.307080805E-2,-8.743373871E0
3.687207671E0,4.311866283E0,-1.914258115E-2,-8.748159409E0
3.689318453E0,4.311866283E0,0.000000000E0,-8.743373871E0
3.691429234E0,4.311866283E0,1.435693540E-2,-8.724231720E0
3.693540015E0,4.302295208E0,2.392822690E-2,-8.738588333E0
3.695650796E0,4.311866283E0,3.828516230E-2,-8.738588333E0
3.697761578E0,4.302295208E0,4.785645381E-2,-8.724231720E0
3.699872359E0,4.302295208E0,6.699903309E-2,-8.743373871E0
3.701983140E0,4.297509670E0,8.614161611E-2,-8.729017258E0
3.704093921E0,4.287938118E0,9.092725813E-2,-8.743373871E0
3.706204703E0,4.259224415E0,8.135596663E-2,-8.733802795E0
3.708315484E0,4.264009953E0,9.571290761E-2,-8.743373871E0
3.710426265E0,4.273581028E0,8.135596663E-2,-8.748159409E0
3.712537046E0,4.278367043E0,1.004985496E-1,-8.752944946E0
3.714647776E0,4.283152580E0,1.004985496E-1,-8.762516975E0
3.716758557E0,4.292723656E0,1.004985496E-1,-8.752944946E0
3.718869338E0,4.302295208E0,1.052841991E-1,-8.752944946E0
3.720980119E0,4.316651821E0,8.614161611E-2,-8.748159409E0
3.723090901E0,4.345366001E0,6.699903309E-2,-8.738588333E0
3.725201682E0,4.359723091E0,5.742774159E-2,-8.762516975E0
3.727312463E0,4.393222332E0,2.392822690E-2,-8.743373871E0
3.729423244E0,4.383651257E0,1.435693540E-2,-8.738588333E0
3.731534026E0,4.412364960E0,0.000000000E0,-8.729017258E0
3.733644807E0,4.417150497E0,-1.914258115E-2,-8.700303078E0
3.735755588E0,4.421936035E0,-1.435693540E-2,-8.681160927E0
3.737866369E0,4.436293125E0,-1.914258115E-2,-8.685946465E0
3.739977151E0,4.441078663E0,-3.828516230E-2,-8.657232285E0
3.742087932E0,4.426722050E0,-5.264209956E-2,-8.676374435E0
3.744198713E0,4.441078663E0,-6.221338734E-2,-8.705088615E0
3.746309442E0,4.450650215E0,-9.092725813E-2,-8.705088615E0
3.748420276E0,4.460221291E0,-9.571290761E-2,-8.705088615E0
3.750531057E0,4.484149456E0,-1.100698411E-1,-8.719446182E0
3.752641786E0,4.508078098E0,-1.531406492E-1,-8.729017258E0
3.754752619E0,4.532006264E0,-1.674975902E-1,-8.762516975E0
3.756863348E0,4.532006264E0,-1.770688742E-1,-8.786444664E0
3.758974130E0,4.527220249E0,-1.962114573E-1,-8.796015739E0
3.761084911E0,4.527220249E0,-2.153540403E-1,-8.796015739E0
3.763195692E0,4.532006264E0,-2.153540403E-1,-8.767302513E0
3.765306473E0,4.512863636E0,-2.488535494E-1,-8.786444664E0
3.767417255E0,4.498506546E0,-2.632105052E-1,-8.772088051E0
3.769528036E0,4.493721008E0,-3.062812984E-1,-8.757730484E0
3.771638817E0,4.469792843E0,-3.493520916E-1,-8.743373871E0
3.773749598E0,4.455435753E0,-3.637090325E-1,-8.733802795E0
3.775860380E0,4.450650215E0,-4.067798555E-1,-8.724231720E0
3.777971161E0,4.426722050E0,-4.402793646E-1,-8.719446182E0
3.780081942E0,4.417150497E0,-4.546363056E-1,-8.724231720E0
3.782192723E0,4.407579422E0,-4.642075896E-1,-8.719446182E0
3.784303505E0,4.412364960E0,-4.977070987E-1,-8.752944946E0
3.786414286E0,4.398007870E0,-5.168496966E-1,-8.776873589E0
3.788525067E0,4.388436794E0,-5.168496966E-1,-8.791230202E0
3.790635848E0,4.378865242E0,-5.168496966E-1,-8.796015739E0
3.792746630E0,4.364508629E0,-5.120640397E-1,-8.824729919E0
3.794857411E0,4.321437836E0,-5.120640397E-1,-8.858229637E0
3.796968140E0,4.321437836E0,-4.977070987E-1,-8.853444099E0
3.799078921E0,4.307080746E0,-5.024927258E-1,-8.886942863E0
3.801189703E0,4.278367043E0,-5.216353536E-1,-8.863015175E0
3.803300484E0,4.273581028E0,-5.264210105E-1,-8.853444099E0
3.805411265E0,4.268795490E0,-5.503492355E-1,-8.853444099E0
3.807522046E0,4.240081787E0,-5.216353536E-1,-8.853444099E0
3.809632828E0,4.244867325E0,-5.503492355E-1,-8.843872070E0
3.811743609E0,4.225724697E0,-5.551348329E-1,-8.843872070E0
3.813854390E0,4.244867325E0,-5.551348329E-1,-8.848658562E0
3.815965171E0,4.249652863E0,-5.647061467E-1,-8.834300995E0
3.818075953E0,4.249652863E0,-5.742774606E-1,-8.829515457E0
3.820186734E0,4.259224415E0,-5.982056856E-1,-8.800801277E0
3.822297515E0,4.278367043E0,-6.077769399E-1,-8.772088051E0
3.824408296E0,4.273581028E0,-6.221339107E-1,-8.748159409E0
3.826519078E0,4.283152580E0,-6.317051649E-1,-8.748159409E0
3.828629859E0,4.307080746E0,-6.221339107E-1,-8.709874153E0
3.830740640E0,4.297509670E0,-6.317051649E-1,-8.690732002E0
3.832851421E0,4.307080746E0,-6.364908218E-1,-8.676374435E0
3.834962203E0,4.302295208E0,-6.269195080E-1,-8.657232285E0
3.837072932E0,4.307080746E0,-6.221339107E-1,-8.657232285E0
3.839183713E0,4.307080746E0,-6.125625968E-1,-8.662017822E0
3.841294494E0,4.311866283E0,-5.982056856E-1,-8.676374435E0
3.843405276E0,4.302295208E0,-6.029912829E-1,-8.685946465E0
3.845516057E0,4.321437836E0,-5.503492355E-1,-8.681160927E0
3.847626838E0,4.326223373E0,-5.455635786E-1,-8.714659691E0
3.849737619E0,4.316651821E0,-5.168496966E-1,-8.719446182E0
3.851848401E0,4.316651821E0,-4.929214716E-1,-8.738588333E0
3.853959182E0,4.307080746E0,-4.737788737E-1,-8.772088051E0
3.856069963E0,4.316651821E0,-4.115654826E-1,-8.762516975E0
3.858180744E0,4.307080746E0,-4.163511395E-1,-8.772088051E0
3.860291526E0,4.302295208E0,-3.876372576E-1,-8.791230202E0
3.862402307E0,4.311866283E0,-3.493520916E-1,-8.786444664E0
3.864513088E0,4.302295208E0,-3.397808075E-1,-8.762516975E0
3.866623869E0,4.316651821E0,-3.302095234E-1,-8.748159409E0
3.868734651E0,4.316651821E0,-3.254238665E-1,-8.757730484E0
3.870845432E0,4.335794449E0,-3.158525825E-1,-8.748159409E0
3.872956213E0,4.335794449E0,-3.254238665E-1,-8.752944946E0
3.875066994E0,4.378865242E0,-3.014956415E-1,-8.752944946E0
3.877177776E0,4.383651257E0,-3.014956415E-1,-8.762516975E0
3.879288505E0,4.431507587E0,-2.871387303E-1,-8.772088051E0
3.881399286E0,4.441078663E0,-2.823530734E-1,-8.757730484E0
3.883510067E0,4.460221291E0,-2.679961324E-1,-8.748159409E0
3.885620848E0,4.493721008E0,-2.488535494E-1,-8.738588333E0
3.887731630E0,4.498506546E0,-2.392822653E-1,-8.729017258E0
3.889842411E0,4.503292084E0,-2.344966233E-1,-8.695517540E0
3.891953192E0,4.498506546E0,-2.392822653E-1,-8.671588898E0
3.894063973E0,4.527220249E0,-2.153540403E-1,-8.647661209E0
3.896174755E0,4.512863636E0,-2.057827413E-1,-8.633303642E0
3.898285536E0,4.512863636E0,-2.105683982E-1,-8.614161491E0
3.900396317E0,4.536791801E0,-2.105683982E-1,-8.633303642E0
3.902507098E0,4.541577339E0,-2.153540403E-1,-8.614161491E0
3.904617880E0,4.565505505E0,-2.344966233E-1,-8.623732567E0
3.906728661E0,4.584648132E0,-2.536391914E-1,-8.671588898E0
3.908839442E0,4.594219685E0,-2.392822653E-1,-8.685946465E0
3.910950223E0,4.575077057E0,-2.297109663E-1,-8.662017822E0
3.913061005E0,4.560719967E0,-2.392822653E-1,-8.695517540E0
3.915171786E0,4.560719967E0,-2.440679073E-1,-8.719446182E0
3.917282515E0,4.560719967E0,-2.249253243E-1,-8.733802795E0
3.919393348E0,4.546362877E0,-2.153540403E-1,-8.743373871E0
3.921504078E0,4.527220249E0,-2.009970993E-1,-8.743373871E0
3.923614859E0,4.503292084E0,-1.866401732E-1,-8.733802795E0
3.925725640E0,4.517649174E0,-1.818545163E-1,-8.695517540E0
3.927836421E0,4.488935471E0,-1.770688742E-1,-8.705088615E0
3.929947203E0,4.479363918E0,-1.722832322E-1,-8.719446182E0
3.932057984E0,4.474578381E0,-1.962114573E-1,-8.724231720E0
3.934168765E0,4.465006828E0,-2.009970993E-1,-8.752944946E0
3.936279546E0,4.465006828E0,-1.914258152E-1,-8.752944946E0
3.938390328E0,4.450650215E0,-2.297109663E-1,-8.786444664E0
3.940501109E0,4.436293125E0,-2.297109663E-1,-8.810373306E0
3.942611890E0,4.441078663E0,-2.584248483E-1,-8.829515457E0
3.944722619E0,4.431507587E0,-2.727817893E-1,-8.843872070E0
3.946833453E0,4.407579422E0,-2.967100143E-1,-8.843872070E0
3.948944234E0,4.388436794E0,-3.014956415E-1,-8.853444099E0
3.951055015E0,4.374079704E0,-3.206382394E-1,-8.867800713E0
3.953165796E0,4.335794449E0,-3.206382394E-1,-8.839086533E0
3.955276578E0,4.345366001E0,-3.302095234E-1,-8.834300995E0
3.957387359E0,4.340580463E0,-3.349951804E-1,-8.839086533E0
3.959498140E0,4.316651821E0,-3.445664644E-1,-8.834300995E0
3.961608869E0,4.297509670E0,-3.780659735E-1,-8.800801277E0
3.963719651E0,4.292723656E0,-3.924229145E-1,-8.800801277E0
3.965830432E0,4.278367043E0,-3.924229145E-1,-8.791230202E0
3.967941213E0,4.273581028E0,-3.924229145E-1,-8.772088051E0
3.970051994E0,4.273581028E0,-3.828516304E-1,-8.767302513E0
3.972162776E0,4.283152580E0,-4.067798555E-1,-8.752944946E0
3.974273557E0,4.273581028E0,-3.972085714E-1,-8.757730484E0
3.976384338E0,4.273581028E0,-3.876372576E-1,-8.752944946E0
3.978495119E0,4.264009953E0,-3.780659735E-1,-8.743373871E0
3.980605901E0,4.259224415E0,-3.732803464E-1,-8.733802795E0
3.982716682E0,4.273581028E0,-3.397808075E-1,-8.743373871E0
3.984827463E0,4.259224415E0,-3.206382394E-1,-8.724231720E0
3.986938244E0,4.254438877E0,-2.775674164E-1,-8.709874153E0
3.989049026E0,4.283152580E0,-2.584248483E-1,-8.714659691E0
3.991159807E0,4.273581028E0,-2.201396823E-1,-8.724231720E0
3.993270588E0,4.283152580E0,-2.009970993E-1,-8.709874153E0
3.995381369E0,4.297509670E0,-1.962114573E-1,-8.709874153E0
3.997492151E0,4.311866283E0,-1.866401732E-1,-8.714659691E0
3.999602932E0,4.302295208E0,-1.818545163E-1,-8.714659691E0
4.001713713E0,4.302295208E0,-1.627119333E-1,-8.690732002E0
4.003824442E0,4.331008911E0,-1.483550072E-1,-8.690732002E0
4.005935223E0,4.316651821E0,-1.483550072E-1,-8.681160927E0
4.008046005E0,4.321437836E0,-1.339980662E-1,-8.681160927E0
4.010156786E0,4.326223373E0,-1.483550072E-1,-8.638090134E0
4.012267567E0,4.311866283E0,-1.627119333E-1,-8.647661209E0
4.014378348E0,4.307080746E0,-1.722832322E-1,-8.623732567E0
4.016489130E0,4.287938118E0,-1.627119333E-1,-8.599804878E0
4.018599911E0,4.287938118E0,-1.818545163E-1,-8.604590416E0
4.020710692E0,4.283152580E0,-1.674975902E-1,-8.609375954E0
4.022821473E0,4.259224415E0,-1.722832322E-1,-8.595019341E0
4.024932255E0,4.240081787E0,-1.914258152E-1,-8.618947029E0
4.027043036E0,4.225724697E0,-1.674975902E-1,-8.628518105E0
4.029153817E0,4.211368084E0,-1.770688742E-1,-8.638090134E0
4.031264598E0,4.192225456E0,-1.579262912E-1,-8.642875671E0
4.033375380E0,4.187439442E0,-1.722832322E-1,-8.681160927E0
4.035486161E0,4.187439442E0,-2.201396823E-1,-8.705088615E0
4.037596942E0,4.168296814E0,-2.153540403E-1,-8.714659691E0
4.039707723E0,4.177868366E0,-2.153540403E-1,-8.738588333E0
4.041818505E0,4.173082829E0,-2.392822653E-1,-8.709874153E0
4.043929286E0,4.187439442E0,-2.536391914E-1,-8.743373871E0
4.046040015E0,4.182653904E0,-2.919243574E-1,-8.729017258E0
4.048150796E0,4.187439442E0,-3.014956415E-1,-8.743373871E0
4.050261578E0,4.192225456E0,-3.014956415E-1,-8.752944946E0
4.052372359E0,4.177868366E0,-3.110669553E-1,-8.752944946E0
4.054483140E0,4.173082829E0,-2.967100143E-1,-8.752944946E0
4.056593921E0,4.177868366E0,-2.919243574E-1,-8.743373871E0
4.058704703E0,4.182653904E0,-2.823530734E-1,-8.733802795E0
4.060815484E0,4.163511276E0,-2.584248483E-1,-8.733802795E0
4.062926265E0,4.187439442E0,-2.392822653E-1,-8.729017258E0
4.065037046E0,4.163511276E0,-2.392822653E-1,-8.733802795E0
4.067147828E0,4.139583111E0,-2.201396823E-1,-8.738588333E0
4.069258609E0,4.158725739E0,-1.914258152E-1,-8.757730484E0
4.071369390E0,4.158725739E0,-1.866401732E-1,-8.772088051E0
4.073480171E0,4.149154663E0,-1.674975902E-1,-8.776873589E0
4.075590953E0,4.144368649E0,-1.483550072E-1,-8.800801277E0
4.077701734E0,4.149154663E0,-1.292124242E-1,-8.824729919E0
4.079812515E0,4.149154663E0,-1.244267747E-1,-8.834300995E0
4.081923296E0,4.153940201E0,-9.092725813E-2,-8.863015175E0
4.084034026E0,4.168296814E0,-6.699903309E-2,-8.872586250E0
4.086144807E0,4.163511276E0,-5.264209956E-2,-8.896514893E0
4.088255588E0,4.168296814E0,-4.785645381E-2,-8.901300430E0
4.090366421E0,4.192225456E0,-2.392822690E-2,-8.882157326E0
4.092477151E0,4.192225456E0,-4.785645287E-3,-8.853444099E0
4.094587932E0,4.197010994E0,3.349951655E-2,-8.829515457E0
4.096698713E0,4.201796532E0,6.699903309E-2,-8.786444664E0
4.098809494E0,4.197010994E0,8.135596663E-2,-8.752944946E0
4.100920276E0,4.206582069E0,9.571290761E-2,-8.724231720E0
4.103031057E0,4.206582069E0,1.244267747E-1,-8.681160927E0
4.105141838E0,4.206582069E0,1.579262912E-1,-8.666803360E0
4.107252619E0,4.206582069E0,1.674975902E-1,-8.633303642E0
4.109363401E0,4.201796532E0,1.962114573E-1,-8.628518105E0
4.111474182E0,4.216153622E0,2.057827413E-1,-8.609375954E0
4.113584963E0,4.235296249E0,2.344966233E-1,-8.628518105E0
4.115695744E0,4.254438877E0,2.727817893E-1,-8.652446747E0
4.117806526E0,4.254438877E0,2.919243574E-1,-8.662017822E0
4.119917307E0,4.278367043E0,3.206382394E-1,-8.671588898E0
4.122028088E0,4.254438877E0,3.302095234E-1,-8.671588898E0
4.124138869E0,4.268795490E0,3.349951804E-1,-8.695517540E0
4.126249598E0,4.278367043E0,3.445664644E-1,-8.657232285E0
4.128360380E0,4.287938118E0,3.732803464E-1,-8.662017822E0
4.130471161E0,4.302295208E0,3.637090325E-1,-8.638090134E0
4.132581942E0,4.287938118E0,3.684946895E-1,-8.633303642E0
4.134692723E0,4.292723656E0,3.876372576E-1,-8.642875671E0
4.136803505E0,4.273581028E0,4.115654826E-1,-8.580661774E0
4.138914286E0,4.268795490E0,4.259224236E-1,-8.590232849E0
4.141025067E0,4.264009953E0,4.163511395E-1,-8.585447311E0
4.143135848E0,4.240081787E0,4.259224236E-1,-8.571090698E0
4.145246630E0,4.230510235E0,4.211367965E-1,-8.566305161E0
4.147357411E0,4.211368084E0,4.067798555E-1,-8.547162056E0
4.149468192E0,4.201796532E0,4.115654826E-1,-8.551948547E0
4.151578973E0,4.177868366E0,3.972085714E-1,-8.585447311E0
4.153689755E0,4.182653904E0,3.876372576E-1,-8.595019341E0
4.155800536E0,4.163511276E0,3.732803464E-1,-8.618947029E0
4.157911317E0,4.144368649E0,3.732803464E-1,-8.638090134E0
4.160022098E0,4.134797573E0,3.589234054E-1,-8.666803360E0
4.162132880E0,4.125226021E0,3.541377485E-1,-8.681160927E0
4.164243609E0,4.134797573E0,3.541377485E-1,-8.719446182E0
4.166354442E0,4.106083870E0,3.589234054E-1,-8.748159409E0
4.168465223E0,4.091726780E0,3.397808075E-1,-8.752944946E0
4.170576005E0,4.058227062E0,3.349951804E-1,-8.738588333E0
4.172686734E0,4.077369690E0,3.302095234E-1,-8.748159409E0
4.174797515E0,4.053441525E0,3.158525825E-1,-8.743373871E0
4.176908296E0,4.043870449E0,3.014956415E-1,-8.752944946E0
4.179019078E0,4.043870449E0,3.014956415E-1,-8.724231720E0
4.181129859E0,4.019941807E0,2.919243574E-1,-8.729017258E0
4.183240640E0,4.024727821E0,2.823530734E-1,-8.724231720E0
4.185351421E0,4.029513359E0,2.919243574E-1,-8.729017258E0
4.187462203E0,4.039084435E0,2.679961324E-1,-8.748159409E0
4.189572984E0,4.043870449E0,2.584248483E-1,-8.757730484E0
4.191683765E0,4.072584152E0,2.584248483E-1,-8.772088051E0
4.193794546E0,4.091726780E0,2.344966233E-1,-8.786444664E0
4.195905328E0,4.106083870E0,2.201396823E-1,-8.776873589E0
4.198016109E0,4.101297855E0,2.153540403E-1,-8.786444664E0
4.200126890E0,4.130012035E0,2.057827413E-1,-8.776873589E0
4.202237671E0,4.149154663E0,1.914258152E-1,-8.781659126E0
4.204348453E0,4.168296814E0,1.914258152E-1,-8.791230202E0
4.206459234E0,4.168296814E0,1.674975902E-1,-8.748159409E0
4.208570015E0,4.197010994E0,1.579262912E-1,-8.729017258E0
4.210680744E0,4.216153622E0,1.435693651E-1,-8.700303078E0
4.212791526E0,4.225724697E0,1.339980662E-1,-8.700303078E0
4.214902307E0,4.264009953E0,1.292124242E-1,-8.685946465E0
4.217013088E0,4.283152580E0,1.100698411E-1,-8.671588898E0
4.219123869E0,4.307080746E0,7.657032460E-2,-8.633303642E0
4.221234651E0,4.321437836E0,6.699903309E-2,-8.623732567E0
4.223345432E0,4.340580463E0,4.785645381E-2,-8.585447311E0
4.225456213E0,4.340580463E0,2.392822690E-2,-8.566305161E0
4.227566994E0,4.340580463E0,0.000000000E0,-8.556734085E0
4.229677776E0,4.364508629E0,-1.435693540E-2,-8.556734085E0
4.231788557E0,4.378865242E0,-3.828516230E-2,-8.561519623E0
4.233899338E0,4.369294167E0,-7.657032460E-2,-8.561519623E0
4.236010119E0,4.393222332E0,-8.135596663E-2,-8.575876236E0
4.238120901E0,4.383651257E0,-1.052841991E-1,-8.595019341E0
4.240231682E0,4.393222332E0,-1.196411327E-1,-8.590232849E0
4.242342463E0,4.393222332E0,-1.435693651E-1,-8.599804878E0
4.244453244E0,4.383651257E0,-1.531406492E-1,-8.604590416E0
4.246563973E0,4.374079704E0,-1.579262912E-1,-8.628518105E0
4.248674807E0,4.374079704E0,-1.674975902E-1,-8.642875671E0
4.250785536E0,4.378865242E0,-1.387837082E-1,-8.662017822E0
4.252896317E0,4.354937077E0,-1.387837082E-1,-8.671588898E0
4.255007098E0,4.350151539E0,-1.435693651E-1,-8.662017822E0
4.257117880E0,4.345366001E0,-1.052841991E-1,-8.685946465E0
4.259228661E0,4.345366001E0,-1.148554832E-1,-8.700303078E0
4.261339442E0,4.331008911E0,-9.571290761E-2,-8.719446182E0
4.263450223E0,4.331008911E0,-1.052841991E-1,-8.729017258E0
4.265561005E0,4.335794449E0,-1.004985496E-1,-8.767302513E0
4.267671786E0,4.345366001E0,-1.004985496E-1,-8.762516975E0
4.269782567E0,4.359723091E0,-1.100698411E-1,-8.810373306E0
4.271893348E0,4.364508629E0,-1.148554832E-1,-8.819944382E0
4.274004130E0,4.359723091E0,-1.292124242E-1,-8.805587769E0
4.276114911E0,4.364508629E0,-1.531406492E-1,-8.800801277E0
4.278225692E0,4.374079704E0,-1.531406492E-1,-8.791230202E0
4.280336473E0,4.388436794E0,-1.483550072E-1,-8.772088051E0
4.282447255E0,4.383651257E0,-1.722832322E-1,-8.752944946E0
4.284558036E0,4.393222332E0,-2.009970993E-1,-8.705088615E0
4.286668817E0,4.407579422E0,-2.105683982E-1,-8.671588898E0
4.288779598E0,4.417150497E0,-2.488535494E-1,-8.662017822E0
4.290890328E0,4.436293125E0,-2.632105052E-1,-8.647661209E0
4.293001057E0,4.421936035E0,-2.679961324E-1,-8.628518105E0
4.295111942E0,4.441078663E0,-2.871387303E-1,-8.628518105E0
4.297222671E0,4.445864677E0,-2.967100143E-1,-8.618947029E0
4.299333453E0,4.436293125E0,-3.254238665E-1,-8.614161491E0
4.301444234E0,4.441078663E0,-3.349951804E-1,-8.599804878E0
4.303555015E0,4.426722050E0,-3.493520916E-1,-8.590232849E0
4.305665796E0,4.421936035E0,-3.684946895E-1,-8.590232849E0
4.307776578E0,4.407579422E0,-3.780659735E-1,-8.614161491E0
4.309887359E0,4.412364960E0,-3.732803464E-1,-8.647661209E0
4.311998140E0,4.412364960E0,-3.828516304E-1,-8.638090134E0
4.314108921E0,4.398007870E0,-3.924229145E-1,-8.642875671E0
4.316219703E0,4.383651257E0,-4.115654826E-1,-8.671588898E0
4.318330484E0,4.374079704E0,-4.115654826E-1,-8.685946465E0
4.320441265E0,4.359723091E0,-4.115654826E-1,-8.681160927E0
4.322552046E0,4.335794449E0,-4.211367965E-1,-8.724231720E0
4.324662828E0,4.331008911E0,-4.211367965E-1,-8.709874153E0
4.326773609E0,4.321437836E0,-4.067798555E-1,-8.714659691E0
4.328884390E0,4.307080746E0,-3.828516304E-1,-8.685946465E0
