"Time (s)","Linear Acceleration x (m/s^2)","Linear Acceleration y (m/s^2)","Linear Acceleration z (m/s^2)"
3.530652600E-2,0.000000000E0,0.000000000E0,0.000000000E0
4.030652600E-2,9.302139282E-3,-1.165984198E-2,3.398895264E-3
4.530652600E-2,1.711606979E-2,-1.738576218E-2,1.145648956E-2
5.030652600E-2,2.175569534E-2,-2.482357621E-2,9.643554688E-3
5.530652600E-2,2.206420898E-2,-2.351333201E-2,1.922798157E-2
6.030652600E-2,1.856374741E-2,-3.535376117E-2,2.695846558E-2
6.530652600E-2,-5.033969879E-3,-4.957162961E-2,3.858280182E-2
7.030652600E-2,-1.929092407E-2,-5.723436177E-2,4.282855988E-2
7.530652600E-2,-3.135633469E-2,-5.153659731E-2,3.150558472E-2
8.030652600E-2,-5.183076859E-2,-3.447362781E-2,-2.975463867E-3
8.530652600E-2,-6.633043289E-2,-4.891684745E-3,-1.422214508E-2
9.030652600E-2,-7.111024857E-2,1.767216250E-2,-4.063606262E-2
9.530652600E-2,-6.687307358E-2,4.549091682E-2,-5.162715912E-2
1.003065260E-1,-6.190824509E-2,7.457192987E-2,-7.292842865E-2
1.053065260E-1,-5.142879486E-2,8.433984220E-2,-7.969951630E-2
1.103065260E-1,-3.706455231E-2,8.853942156E-2,-8.188629150E-2
1.153065260E-1,-2.382087708E-2,9.386892617E-2,-4.987144470E-2
1.203065260E-1,-4.774570465E-3,8.190071583E-2,-1.763153076E-2
1.253065260E-1,1.506662369E-2,7.972511649E-2,-1.671600342E-2
1.303065260E-1,2.506923676E-2,6.786355376E-2,1.472187042E-2
1.353065260E-1,3.663682938E-2,6.245744601E-2,2.490901947E-2
1.403065260E-1,4.347324371E-2,6.545251608E-2,3.254222870E-2
1.453065260E-1,4.749441147E-2,6.688317657E-2,3.432178497E-2
1.503065260E-1,3.442144394E-2,4.625511914E-2,3.490829468E-2
1.553065260E-1,8.211135864E-3,1.877436787E-2,3.205490112E-2
1.603065260E-1,-1.706171036E-2,-8.473780006E-3,1.974201202E-2
1.653065260E-1,-4.635095596E-2,-3.378917277E-2,1.932144165E-2
1.703065260E-1,-6.987524033E-2,-4.143465683E-2,2.663803101E-2
1.753065260E-1,-7.916164398E-2,-3.237359971E-2,2.171611786E-2
1.803065260E-1,-6.621313095E-2,-1.698642597E-2,5.569458008E-4
1.853065260E-1,-6.008625031E-2,4.798881710E-3,-3.112316132E-2
1.903065260E-1,-3.075075150E-2,-5.903631449E-3,-6.015586853E-2
1.953065260E-1,-4.658699036E-3,-1.358931139E-2,-7.820224762E-2
2.003065260E-1,3.583860397E-2,-1.936846226E-2,-7.321166992E-2
2.053065260E-1,6.730747223E-2,-3.449302912E-2,-6.292152405E-2
2.103065260E-1,8.013820648E-2,-3.775951639E-2,-1.342010498E-2
2.153065260E-1,9.340000153E-2,-4.497673362E-2,4.062366486E-2
2.203065260E-1,1.041660309E-1,-5.877931044E-2,5.824470520E-2
2.253065260E-1,1.063065529E-1,-6.899067760E-2,6.551647186E-2
2.303065260E-1,1.230530739E-1,-7.333503664E-2,6.712436676E-2
2.353065260E-1,1.350593567E-1,-5.497096479E-2,3.245258331E-2
2.403065260E-1,1.431980133E-1,-3.964198381E-2,1.617240906E-2
2.453065260E-1,1.505165100E-1,-3.010079637E-2,-2.014255524E-2
2.503065260E-1,1.331963539E-1,-9.700842202E-4,-3.070545197E-2
2.553065260E-1,1.187953949E-1,3.226240166E-3,-3.395080566E-3
2.603065260E-1,9.723186493E-2,-4.614256322E-4,2.479934692E-2
2.653065260E-1,7.265758514E-2,3.494570963E-3,2.345180511E-2
2.703065260E-1,5.065536499E-2,7.299192715E-3,3.067207336E-2
2.753065260E-1,2.470588684E-2,-1.921436982E-3,-5.006790161E-4
2.803065260E-1,6.192684174E-3,-1.194286719E-2,-3.194046021E-2
2.853065260E-1,-6.853103638E-3,7.037660573E-3,-6.404209137E-2
2.903065260E-1,-2.455568314E-2,3.134106100E-2,-5.665206909E-2
2.953065260E-1,-3.195762634E-2,4.134035110E-2,-4.403877258E-2
3.003065260E-1,-5.010652542E-2,5.836692080E-2,-1.983928680E-2
3.053065260E-1,-6.776905060E-2,6.336673349E-2,-9.346008301E-3
3.103065260E-1,-6.428909302E-2,6.248843670E-2,2.176094055E-2
3.153065260E-1,-6.645870209E-2,5.853428692E-2,4.644489288E-2
3.203065260E-1,-6.910657883E-2,5.111129209E-2,4.817199707E-2
3.253065260E-1,-5.667686462E-2,4.201492295E-2,5.278682709E-2
3.303065260E-1,-3.355503082E-2,4.312847182E-2,6.554985046E-2
3.353065260E-1,-9.135723114E-3,5.056965351E-2,6.381797791E-2
3.403065260E-1,1.541042328E-2,5.959607661E-2,2.555942535E-2
3.453065260E-1,3.995466232E-2,6.787310541E-2,3.129959106E-3
3.503065260E-1,6.415987015E-2,5.527562276E-2,-2.278041840E-2
3.553065260E-1,7.607412338E-2,5.190737918E-2,-4.178905487E-2
3.603065260E-1,8.295202255E-2,3.116137534E-2,-4.116630554E-2
3.653065260E-1,8.224153519E-2,1.823254488E-2,-2.963924408E-2
3.703065260E-1,7.911062241E-2,1.953363419E-3,2.289199829E-2
3.753065260E-1,1.016764641E-1,-2.513443120E-2,5.250263214E-2
3.803065260E-1,1.075897217E-1,-4.734914005E-2,7.183456421E-2
3.853065260E-1,1.328091621E-1,-6.723494083E-2,6.425666809E-2
3.903065260E-1,1.277623177E-1,-7.638505101E-2,2.316665649E-2
3.953065260E-1,1.321353912E-1,-7.033163309E-2,-1.027011871E-2
4.003065260E-1,1.233716011E-1,-7.255296409E-2,-4.037952423E-2
4.053065260E-1,1.034555435E-1,-6.177811325E-2,-6.595420837E-2
4.103065260E-1,7.943630219E-2,-5.041538924E-2,-8.176136017E-2
4.153065260E-1,4.568529129E-2,-3.733640537E-2,-7.583713531E-2
4.203065260E-1,2.950668335E-3,-2.517705411E-2,-5.886745453E-2
4.253065260E-1,-2.356815338E-2,-1.939155161E-2,-3.916358948E-2
4.303065260E-1,-2.994823456E-2,-3.068991005E-3,-1.780414581E-2
4.353065260E-1,-3.125286102E-2,2.057496458E-3,-4.398345947E-3
4.403065260E-1,-2.607917786E-2,6.060983986E-3,5.395889282E-3
4.453065260E-1,-2.538728714E-2,1.412638277E-2,-7.152557373E-5
4.503065260E-1,-1.932144165E-2,1.897791773E-2,-2.017021179E-3
4.553065260E-1,-1.522779465E-2,1.718082279E-2,3.176689148E-2
4.603065260E-1,-9.022712708E-3,2.019883692E-2,4.934310913E-2
4.653065260E-1,1.314926147E-2,2.607651055E-2,6.503391266E-2
4.703065260E-1,5.109834671E-2,3.796793520E-2,9.123611450E-2
4.753065260E-1,8.604955673E-2,6.142990291E-2,8.857345581E-2
4.803065260E-1,1.398701668E-1,8.230525255E-2,1.016359329E-1
4.853065260E-1,1.911191940E-1,9.817855060E-2,9.485912323E-2
4.903065260E-1,2.287120819E-1,1.031875014E-1,6.921100616E-2
4.953065260E-1,2.772464752E-1,8.845002949E-2,3.756713867E-2
5.003065260E-1,2.994699478E-1,7.907226682E-2,3.489875793E-2
5.053065260E-1,3.278160095E-1,6.359242648E-2,3.170299530E-2
5.103065260E-1,3.497595787E-1,4.755342007E-2,5.711174011E-2
5.153065260E-1,3.843364716E-1,3.534254432E-2,7.417583466E-2
5.203065260E-1,4.286041260E-1,3.351151571E-2,8.958148956E-2
5.253065260E-1,4.691386223E-1,5.848160386E-2,7.904243469E-2
5.303065260E-1,5.263080597E-1,6.625476480E-2,2.025985718E-2
5.353065260E-1,5.901937485E-1,5.636185408E-2,-3.697490692E-2
5.403065260E-1,6.053333282E-1,5.664288998E-2,-8.114242554E-2
5.453065260E-1,5.807013512E-1,6.943243742E-2,-9.616184235E-2
5.503065260E-1,5.022964478E-1,6.515765935E-2,-9.727096558E-2
5.553065260E-1,4.050259590E-1,8.222983032E-2,-3.078079224E-2
5.603065260E-1,3.326907158E-1,7.365299761E-2,5.180454254E-2
5.653065260E-1,2.616801262E-1,5.277055874E-2,8.776473999E-2
5.703065260E-1,2.222375870E-1,5.747989565E-2,8.310317993E-2
5.753065260E-1,1.935114861E-1,8.205740154E-2,2.356910706E-2
5.803065260E-1,1.484861374E-1,1.091303229E-1,-4.740905762E-2
5.853065260E-1,1.006493568E-1,1.089174598E-1,-1.395454407E-1
5.903065260E-1,6.378507614E-2,8.368869126E-2,-2.370338440E-1
5.953065260E-1,-4.648590088E-2,4.859536514E-2,-1.804742813E-1
6.003065260E-1,-1.624255180E-1,1.129331067E-2,4.330348969E-2
6.053065260E-1,-2.804670334E-1,-1.866538078E-3,2.209548950E-1
6.103065260E-1,-3.598575592E-1,-1.712271199E-2,3.132219315E-1
6.153065260E-1,-3.924732208E-1,-2.347576991E-2,2.969408035E-1
6.203065260E-1,-3.676791191E-1,-3.628703952E-2,1.638402939E-1
6.253065260E-1,-3.434705734E-1,-6.229504943E-2,-4.940032959E-3
6.303065260E-1,-3.186187744E-1,-7.180558890E-2,-1.533222198E-1
6.353065260E-1,-2.983546257E-1,-6.700408459E-2,-2.133893967E-1
6.403065260E-1,-2.958803177E-1,-6.862676144E-2,-1.853103638E-1
6.453065260E-1,-2.938947678E-1,-5.981134251E-2,-1.087770462E-1
6.503065260E-1,-3.155598640E-1,-7.976701111E-2,-1.227664948E-2
6.553065260E-1,-3.181719780E-1,-1.192871556E-1,5.718612671E-2
6.603065260E-1,-2.938489914E-1,-1.635660827E-1,3.005409241E-2
6.653065260E-1,-2.753453255E-1,-2.059400976E-1,-3.008365631E-2
6.703065260E-1,-2.729463577E-1,-2.444561273E-1,-5.708694458E-2
6.753065260E-1,-2.734589577E-1,-2.818245292E-1,-6.591320038E-2
6.803065260E-1,-2.579321861E-1,-3.035870194E-1,-5.647659302E-3
6.853065260E-1,-1.977591515E-1,-3.340888321E-1,1.621913910E-2
6.903065260E-1,-1.226277351E-1,-3.457546830E-1,4.738140106E-2
6.953065260E-1,-5.269336700E-2,-3.475911319E-1,6.404876709E-2
7.003065260E-1,4.723882675E-2,-3.564493656E-1,7.994174957E-2
7.053065260E-1,1.401185989E-1,-3.631868660E-1,3.775405884E-2
7.103065260E-1,2.053494453E-1,-3.480071425E-1,-2.441215515E-2
7.153065260E-1,2.231750488E-1,-3.546133339E-1,-7.769203186E-2
7.203065260E-1,2.166595459E-1,-3.349829316E-1,-8.030700684E-2
7.253065260E-1,1.563920975E-1,-2.969450653E-1,-9.851837158E-2
7.303065260E-1,8.719062805E-2,-2.465381175E-1,-9.388065338E-2
7.353065260E-1,-4.984855652E-3,-1.947038025E-1,-1.044082642E-1
7.403065260E-1,-5.355405807E-2,-1.466219127E-1,-1.049900055E-1
7.453065260E-1,-1.186223030E-1,-9.650480747E-2,-1.239748001E-1
7.503065260E-1,-1.431465149E-1,-3.641325980E-2,-1.234951019E-1
7.553065260E-1,-1.426582336E-1,1.379637420E-2,-1.200275421E-1
7.603065260E-1,-1.366887093E-1,6.064124405E-2,-8.528804779E-2
7.653065260E-1,-1.179294586E-1,1.020114869E-1,-4.479217529E-2
7.703065260E-1,-8.458280563E-2,1.271088123E-1,4.158973694E-3
7.753065260E-1,-4.970741272E-2,1.613314003E-1,4.312610626E-2
7.803065260E-1,-4.445981979E-2,1.924712211E-1,6.795120239E-2
7.853065260E-1,-5.792617798E-2,2.189211547E-1,8.395290375E-2
7.903065260E-1,-7.542943954E-2,2.641004026E-1,9.968757629E-2
7.953065260E-1,-1.028800011E-1,2.995132804E-1,1.175460815E-1
8.003065260E-1,-1.247129440E-1,3.465979695E-1,1.013460159E-1
8.053065260E-1,-1.396098137E-1,3.707270026E-1,6.759357452E-2
8.103065260E-1,-1.689543724E-1,3.538624048E-1,4.063701630E-2
8.153065260E-1,-1.820831299E-1,3.206482530E-1,3.516197205E-2
8.203065260E-1,-2.026405334E-1,2.503812313E-1,1.902484894E-2
8.253065260E-1,-2.082414627E-1,2.090914696E-1,-6.268501282E-3
8.303065260E-1,-2.092423439E-1,1.854274571E-1,-1.747226715E-2
8.353065260E-1,-1.782217026E-1,1.423595548E-1,-3.015518188E-2
8.403065260E-1,-1.284852028E-1,1.390548944E-1,-4.300117493E-2
8.453065260E-1,-7.403516769E-2,1.291052550E-1,-3.851413727E-2
8.503065260E-1,-2.818918228E-2,1.140288413E-1,-3.741550446E-2
8.553065260E-1,2.973222733E-2,9.615731239E-2,-1.694774628E-2
8.603065260E-1,7.486677170E-2,7.295477390E-2,-2.733230591E-3
8.653065260E-1,4.882669449E-2,4.059648514E-2,-1.382255554E-2
8.703065260E-1,4.428625107E-2,4.975557327E-3,1.702308655E-3
8.753065260E-1,2.009534836E-2,-1.262265444E-2,6.397247314E-3
8.803065260E-1,-4.930686951E-2,-3.373713791E-2,2.755641937E-2
8.853065260E-1,-1.485152245E-1,-3.658369929E-2,2.880668640E-2
8.903065260E-1,-2.657418251E-1,-3.779642284E-2,-1.647377014E-2
8.953065260E-1,-3.629260063E-1,-3.333096206E-2,-4.832744598E-2
9.003065260E-1,-4.227733612E-1,-5.032549798E-2,-8.897495270E-2
9.053065260E-1,-4.752750397E-1,-5.748203397E-2,-1.252202988E-1
9.103065260E-1,-5.059115887E-1,-5.080117285E-2,-1.493101120E-1
9.153065260E-1,-5.474514961E-1,-2.883274853E-2,-1.622295380E-1
9.203065260E-1,-5.598542690E-1,-2.334756404E-2,-1.380538940E-1
9.253065260E-1,-5.456359386E-1,-1.883295178E-2,-1.130352020E-1
9.303065260E-1,-5.073640347E-1,1.134760678E-3,-1.088972092E-1
9.353065260E-1,-4.716398716E-1,-2.710074186E-4,-1.130113602E-1
9.403065260E-1,-4.327881336E-1,-1.529388130E-3,-1.072931290E-1
9.453065260E-1,-3.800864220E-1,-1.104253531E-2,-5.889225006E-2
9.503065260E-1,-3.121557236E-1,1.771926880E-3,6.124496460E-3
9.553065260E-1,-2.790284157E-1,-3.023579717E-3,8.891296387E-2
9.603065260E-1,-2.296032906E-1,5.772314966E-3,1.422157288E-1
9.653065260E-1,-1.926074028E-1,1.401858404E-2,1.575927734E-1
9.703065260E-1,-1.639041901E-1,3.730153292E-2,1.447954178E-1
9.753065260E-1,-1.208472252E-1,6.282307953E-2,1.208267212E-1
9.803065260E-1,-1.149492264E-1,6.944328547E-2,6.074619293E-2
9.853065260E-1,-1.436152458E-1,7.191306353E-2,4.831314087E-3
9.903065260E-1,-1.604242325E-1,7.713485509E-2,-3.004169464E-2
9.953065260E-1,-1.853876114E-1,7.993379235E-2,-4.818058014E-2
1.000306526E0,-2.231779099E-1,8.152977377E-2,-5.986499786E-2
1.005306526E0,-2.592039108E-1,8.866602182E-2,-5.060482025E-2
1.010306526E0,-3.145723343E-1,7.100029290E-2,-5.700492859E-2
1.015306526E0,-3.378186226E-1,6.906189024E-2,-6.381511688E-2
1.020306526E0,-3.462834358E-1,9.332735837E-2,-5.613231659E-2
1.025306526E0,-3.475308418E-1,9.697330743E-2,-7.395648956E-2
1.030306526E0,-3.513140678E-1,7.053649426E-2,-8.626270294E-2
1.035306526E0,-3.474962711E-1,3.436721116E-2,-1.088113785E-1
1.040306526E0,-3.414626122E-1,1.376996934E-2,-1.149320602E-1
1.045306526E0,-3.317396641E-1,-1.677810401E-2,-1.201267242E-1
1.050306526E0,-3.577904701E-1,-1.355787367E-2,-1.299819946E-1
1.055306526E0,-4.088563919E-1,-2.478609979E-2,-1.368560791E-1
1.060306526E0,-4.402084351E-1,-2.561926842E-2,-1.360063553E-1
1.065306526E0,-4.768614769E-1,9.953081608E-4,-1.259870529E-1
1.070306526E0,-4.985666275E-1,3.475098312E-2,-9.611988068E-2
1.075306526E0,-4.623878002E-1,5.569677055E-2,-3.143310547E-2
1.080306526E0,-3.868055344E-1,7.766962051E-2,-9.973526001E-3
1.085306526E0,-3.199033737E-1,7.860268652E-2,7.514953613E-4
1.090306526E0,-2.508125305E-1,9.873770177E-2,3.796577454E-3
1.095306526E0,-2.238206863E-1,1.245533079E-1,4.715442657E-2
1.100306526E0,-1.790375710E-1,1.438593268E-1,7.613563538E-2
1.105306526E0,-1.675596237E-1,1.692904532E-1,6.819057465E-2
1.110306526E0,-1.357655525E-1,2.016762346E-1,5.677318573E-2
1.115306526E0,-1.226849556E-1,2.185075879E-1,5.484485626E-2
1.120306526E0,-1.128053665E-1,2.468260974E-1,6.845474243E-2
1.125306526E0,-1.245532036E-1,2.768397033E-1,6.731224060E-2
1.130306526E0,-1.423182487E-1,2.759267092E-1,1.010122299E-1
1.135306526E0,-1.396408081E-1,3.025611043E-1,1.048135757E-1
1.140306526E0,-1.054306030E-1,3.156439662E-1,1.021537781E-1
1.145306526E0,-4.965782166E-2,3.196107149E-1,6.025409698E-2
1.150306526E0,6.827354431E-3,2.937363982E-1,-6.943702698E-3
1.155306526E0,5.888986588E-2,2.577686310E-1,-8.388900757E-2
1.160306526E0,7.871294022E-2,2.041212916E-1,-1.272697449E-1
1.165306526E0,8.315038681E-2,1.508747339E-1,-1.523847580E-1
1.170306526E0,8.975553513E-2,9.115296602E-2,-1.320858002E-1
1.175306526E0,8.374881744E-2,4.534807801E-2,-9.620285034E-2
1.180306526E0,7.285213470E-2,-1.117497683E-2,-4.853916168E-2
1.185306526E0,8.170795441E-2,-8.306264877E-2,-9.069442749E-4
1.190306526E0,6.812405586E-2,-1.482178569E-1,1.793956757E-2
1.195306526E0,7.958889008E-2,-2.073705196E-1,3.047752380E-2
1.200306526E0,7.208943367E-2,-2.672078609E-1,-1.499557495E-2
1.205306526E0,5.774664879E-2,-3.245159388E-1,-6.223869324E-2
1.210306526E0,3.282546997E-2,-3.516973257E-1,-9.797763824E-2
1.215306526E0,2.204179764E-3,-3.773235083E-1,-1.037778854E-1
1.220306526E0,-5.217170715E-2,-3.964372873E-1,-7.622051239E-2
1.225306526E0,-7.939577103E-2,-4.247496724E-1,-5.745506287E-2
1.230306526E0,-1.069645882E-1,-4.532269835E-1,-3.498744965E-2
1.235306526E0,-9.668612480E-2,-4.817414880E-1,-2.618503571E-2
1.240306526E0,-8.826589584E-2,-5.225662589E-1,-4.226875305E-2
1.245306526E0,-9.259319305E-2,-5.508614779E-1,-4.451942444E-2
1.250306526E0,-9.318423271E-2,-5.585469604E-1,-3.934955597E-2
1.255306526E0,-9.616971016E-2,-5.469806790E-1,-2.289772034E-3
1.260306526E0,-7.581853867E-2,-5.196919441E-1,3.717231750E-2
1.265306526E0,-4.207015038E-2,-4.676926732E-1,7.027053833E-2
1.270306526E0,-2.612805367E-2,-4.397017360E-1,8.496856689E-2
1.275306526E0,-2.171635628E-2,-4.576991796E-1,7.158756256E-2
1.280306526E0,-2.918958664E-3,-4.815372229E-1,2.102375031E-2
1.285306526E0,1.024293900E-2,-5.130150318E-1,-3.288936615E-2
1.290306526E0,2.225923538E-2,-5.411236286E-1,-7.822799683E-2
1.295306526E0,4.563331604E-3,-5.665328503E-1,-9.460926056E-2
1.300306526E0,-3.773140907E-2,-5.529748201E-1,-6.404876709E-2
1.305306526E0,-4.004335403E-2,-5.588840246E-1,4.462528229E-2
1.310306526E0,-2.328920364E-2,-5.413200855E-1,7.226562500E-2
1.315306526E0,-6.237506866E-3,-5.410834551E-1,-1.939201355E-2
1.320306526E0,-1.848220825E-3,-5.588604212E-1,-9.540748596E-2
1.325306526E0,-3.213644028E-3,-6.430224180E-1,-9.639072418E-2
1.330306526E0,-2.875828743E-2,-7.038511038E-1,-1.083126068E-1
1.335306526E0,-4.705071449E-2,-7.217509747E-1,-6.622028351E-2
1.340306526E0,-7.489967346E-2,-7.189941406E-1,-4.853820801E-2
1.345306526E0,-9.460401535E-2,-7.048717737E-1,-5.035686493E-2
1.350306526E0,-2.806019783E-2,-6.284263134E-1,-1.958465576E-2
1.355306526E0,5.565476418E-2,-5.162810087E-1,-3.362178802E-2
1.360306526E0,1.651122570E-1,-4.100196362E-1,-5.094337463E-2
1.365306526E0,2.294769287E-1,-3.012794256E-1,-1.059598923E-1
1.370306526E0,2.547221184E-1,-2.277464867E-1,-1.368179321E-1
1.375306526E0,2.821805477E-1,-1.475324631E-1,-1.251993179E-1
1.380306526E0,3.176538944E-1,-8.753407001E-2,-7.999801636E-2
1.385306526E0,3.384439945E-1,-5.557501316E-2,-4.346179962E-2
1.390306526E0,3.402833939E-1,-1.924955845E-2,4.329681396E-4
1.395306526E0,3.015365601E-1,7.202744484E-3,5.179405212E-2
1.400306526E0,2.331845760E-1,1.619875431E-2,9.612941742E-2
1.405306526E0,1.575121880E-1,7.033133507E-2,1.391954422E-1
1.410306526E0,1.103982925E-1,1.388273239E-1,1.830425262E-1
1.415306526E0,1.176366806E-1,2.258043289E-1,1.677770615E-1
1.420306526E0,1.461033821E-1,3.068466187E-1,1.460218430E-1
1.425306526E0,1.958284378E-1,3.852486610E-1,5.231857300E-2
1.430306526E0,2.412865162E-1,4.471039772E-1,-4.241275787E-2
1.435306526E0,2.834825516E-1,4.801324606E-1,-1.331844330E-1
1.440306526E0,3.103945255E-1,5.020714998E-1,-1.754655838E-1
1.445306526E0,3.378107548E-1,5.195200443E-1,-1.275119781E-1
1.450306526E0,3.803021908E-1,5.158120394E-1,-6.178760529E-2
1.455306526E0,4.357268810E-1,5.008306503E-1,1.509380341E-2
1.460306526E0,4.887473583E-1,5.202893019E-1,8.413314819E-2
1.465306526E0,5.468134880E-1,5.922181606E-1,1.783256531E-1
1.470306526E0,3.028914690E0,-1.925098896E-2,3.931628227E0
1.475306526E0,4.048109055E0,1.210249662E-1,6.494576454E0
1.480306526E0,4.153255463E0,-2.418463230E-1,2.209615707E0
1.485306526E0,4.236948967E0,-3.247036934E-1,-2.752376556E0
1.490306526E0,4.457841396E0,8.694803715E-2,-4.368424416E0
1.495306526E0,4.298285961E0,5.952916145E-1,-3.135016441E0
1.500306526E0,3.654710770E0,7.646567225E-1,-1.048583984E-1
1.505306526E0,2.993070364E0,6.162567139E-1,2.469944477E0
1.510306526E0,2.666534662E0,3.040726185E-1,2.838723183E0
1.515306526E0,2.675651550E0,-2.058470249E-2,1.279347420E0
1.520306526E0,2.704891682E0,-3.218815327E-1,-6.922760010E-1
1.525306526E0,2.551648140E0,-6.007149220E-1,-1.736576080E0
1.530306526E0,2.205855608E0,-8.368704319E-1,-1.610836029E0
1.535306526E0,1.735921860E0,-9.868531227E-1,-6.514482498E-1
1.540306526E0,1.252522469E0,-1.038407207E0,5.322656631E-1
1.545306526E0,7.295176983E-1,-1.004222035E0,1.348189831E0
1.550306526E0,2.831251621E-1,-9.707282782E-1,1.519191742E0
1.555306526E0,-2.935409546E-2,-9.392580986E-1,9.784946442E-1
1.560306526E0,-2.183325291E-1,-8.939945698E-1,3.648281097E-2
1.565306526E0,-3.783693314E-1,-8.230642080E-1,-6.838684082E-1
1.570306526E0,-5.120327473E-1,-7.381067276E-1,-9.668626785E-1
1.575306526E0,-6.515426636E-1,-6.598343849E-1,-9.144458771E-1
1.580306526E0,-8.264813423E-1,-5.703458786E-1,-5.577516556E-1
1.585306526E0,-9.536118507E-1,-4.761785269E-1,-1.212911606E-1
1.590306526E0,-1.013309240E0,-4.131608009E-1,1.628293991E-1
1.595306526E0,-1.016621590E0,-3.930999041E-1,1.582813263E-1
1.600306526E0,-9.999313354E-1,-4.145592451E-1,-9.212493896E-2
1.605306526E0,-9.698669910E-1,-4.048854113E-1,-3.015317917E-1
1.610306526E0,-9.357526302E-1,-3.684451580E-1,-2.763090134E-1
1.615306526E0,-9.021298885E-1,-3.614561558E-1,-5.679988861E-2
1.620306526E0,-8.038697243E-1,-3.846597672E-1,2.304410934E-1
1.625306526E0,-5.862214565E-1,-4.457762241E-1,3.488960266E-1
1.630306526E0,-3.132381439E-1,-5.153087378E-1,1.667709351E-1
1.635306526E0,-4.605913162E-2,-5.661436319E-1,-1.585655212E-1
1.640306526E0,1.469314098E-1,-5.973924398E-1,-4.411392212E-1
1.645306526E0,2.662284374E-1,-6.763659716E-1,-6.060352325E-1
1.650306526E0,-1.047086716E-1,-1.237060666E0,-7.638893127E-1
1.655306526E0,-9.847021103E-2,-1.475410581E0,-5.804519653E-1
1.660306526E0,4.086661339E-2,-1.444316983E0,-1.454067230E-1
1.665306526E0,1.581590176E-1,-1.216984868E0,4.596252441E-1
1.670306526E0,2.202179432E-1,-9.816162586E-1,9.374523163E-1
1.675306526E0,2.922580242E-1,-8.156806827E-1,9.081230164E-1
1.680306526E0,3.931298256E-1,-6.713520288E-1,3.829002380E-1
1.685306526E0,4.778940678E-1,-5.864155293E-1,-2.618284225E-1
1.690306526E0,4.896345139E-1,-5.181524158E-1,-6.379308701E-1
1.695306526E0,4.183418751E-1,-4.428975582E-1,-6.253614426E-1
1.700306526E0,3.973035812E-1,-3.382234573E-1,-2.577133179E-1
1.705306526E0,6.335206032E-1,-9.714806080E-2,5.061235428E-1
1.710306526E0,7.386932373E-1,6.165391207E-2,6.226530075E-1
1.715306526E0,7.811889648E-1,6.173363328E-2,3.970241547E-1
1.720306526E0,8.303561211E-1,7.295846939E-3,2.281875610E-1
1.725306526E0,9.518351555E-1,-4.949375987E-2,1.191816330E-1
1.730306526E0,1.077612877E0,-6.166845560E-2,1.075115204E-1
1.735306526E0,1.146320343E0,-1.045344174E-1,2.276763916E-1
1.740306526E0,1.226719379E0,-1.585921645E-1,4.182615280E-1
1.745306526E0,1.280514717E0,-1.759314835E-1,6.323480606E-1
1.750306526E0,1.283454895E0,-1.393605620E-1,9.070310593E-1
1.755306526E0,1.230541706E0,-7.993474603E-3,1.147481441E0
1.760306526E0,1.149380207E0,1.253899038E-1,1.176365376E0
1.765306526E0,1.054257870E0,1.483700275E-1,9.400444031E-1
1.770306526E0,1.002427101E0,1.685842276E-1,4.589595795E-1
1.775306526E0,9.315853119E-1,2.324907333E-1,4.833030701E-2
1.780306526E0,8.634662628E-1,3.121306598E-1,-1.045656204E-1
1.785306526E0,8.368086815E-1,2.842622399E-1,-2.488269806E-1
1.790306526E0,7.997546196E-1,2.013443112E-1,-3.463945389E-1
1.795306526E0,6.537241936E-1,9.880092740E-2,-2.044353485E-1
1.800306526E0,4.437780380E-1,-2.649560571E-2,-1.122837067E-1
1.805306526E0,1.838045120E-1,-1.270173788E-1,-2.237834930E-1
1.810306526E0,-7.175731659E-2,-2.270548344E-1,-3.332262039E-1
1.815306526E0,-2.994587421E-1,-4.007536173E-1,-6.910934448E-1
1.820306526E0,-4.952931404E-1,-6.015187502E-1,-1.035316467E0
1.825306526E0,-7.396636009E-1,-8.082193732E-1,-8.571596146E-1
1.830306526E0,-1.080523968E0,-9.822685122E-1,-5.029687881E-1
1.835306526E0,-1.458702564E0,-1.068425536E0,-3.630218506E-1
1.840306526E0,-1.828458071E0,-1.138316631E0,-4.696426392E-1
1.845306526E0,-2.152048111E0,-1.223916292E0,-7.342710495E-1
1.850306526E0,-2.515800953E0,-1.291831255E0,-9.302263260E-1
1.855306526E0,-2.914504290E0,-1.300005913E0,-9.651613235E-1
1.860306526E0,-3.350677967E0,-1.264145732E0,-7.568902969E-1
1.865306526E0,-4.053987026E0,-1.160778761E0,-6.371183395E-1
1.870306526E0,-4.789396763E0,-1.001674056E0,-7.250289917E-1
1.875306526E0,-5.275219917E0,-8.012269735E-1,-9.691019058E-1
1.880306526E0,-5.454863548E0,-5.837229490E-1,-1.241001129E0
1.885306526E0,-5.394515038E0,-3.549110889E-1,-1.130105019E0
1.890306526E0,-5.111702442E0,-8.424484730E-2,-8.740377426E-1
1.895306526E0,-4.477658749E0,3.263829947E-1,-6.486654282E-1
1.900306526E0,-3.236243248E0,1.045899749E0,-3.356075287E-1
1.905306526E0,-2.331166267E0,1.581049323E0,3.100309372E-1
1.910306526E0,-2.110714912E0,1.650861025E0,9.269104004E-1
1.915306526E0,-1.887922287E0,1.661552072E0,1.087069511E0
1.920306526E0,-1.565469265E0,1.671365499E0,8.125576973E-1
1.925306526E0,-1.272351980E0,1.654346466E0,3.597860336E-1
1.930306526E0,-1.096829653E0,1.637374282E0,-2.592182159E-2
1.935306526E0,-1.028988600E0,1.600681901E0,-1.934442520E-1
1.940306526E0,-9.794371128E-1,1.523257613E0,-8.013916016E-2
1.945306526E0,-8.905873299E-1,1.414715052E0,9.667873383E-2
1.950306526E0,-7.845361233E-1,1.244963884E0,1.846408844E-1
1.955306526E0,-7.179915905E-1,1.060453534E0,1.941423416E-1
1.960306526E0,-6.525273323E-1,8.527506590E-1,6.854057312E-2
1.965306526E0,-5.612611771E-1,5.870670080E-1,-9.911918640E-2
1.970306526E0,-4.806089401E-1,3.215084076E-1,-2.610645294E-1
1.975306526E0,-4.364645481E-1,4.201340675E-2,-3.993406296E-1
1.980306526E0,-4.818222523E-1,-1.984258890E-1,-5.585899353E-1
1.985306526E0,-5.716612339E-1,-3.918939829E-1,-4.840421677E-1
1.990306526E0,-7.280604839E-1,-5.952591896E-1,-1.331968307E-1
1.995306526E0,-8.622093201E-1,-7.530385256E-1,2.029561996E-1
2.000306526E0,-9.262168407E-1,-8.407450914E-1,2.978868484E-1
2.005306526E0,-9.059252739E-1,-9.034641981E-1,1.706132889E-1
2.010306526E0,-8.458688259E-1,-9.100131989E-1,-9.382343292E-2
2.015306526E0,-7.740945816E-1,-8.836115599E-1,-4.095172882E-1
2.020306526E0,-7.586109638E-1,-8.506362438E-1,-5.030021667E-1
2.025306526E0,-5.141217709E-1,-6.461447477E-1,7.058715820E-2
2.030306526E0,-9.365868568E-2,-2.647008896E-1,1.306684494E0
2.035306526E0,3.803238869E-1,-1.095526814E-1,1.485538960E0
2.040306526E0,9.864757061E-1,-1.057832241E-1,2.098712921E-1
2.045306526E0,1.540449619E0,-4.643774033E-2,-8.382701874E-1
2.050306526E0,1.999306917E0,2.763706446E-2,-9.986600876E-1
2.055306526E0,2.258508205E0,3.396749496E-3,-5.154676437E-1
2.060306526E0,2.420880795E0,-9.149259329E-2,5.125427246E-2
2.065306526E0,2.556528568E0,-2.373424172E-1,3.521814346E-1
2.070306526E0,2.705356598E0,-4.033160210E-1,4.614582062E-1
2.075306526E0,2.774532795E0,-6.029256582E-1,4.886960983E-1
2.080306526E0,2.699432373E0,-8.180179596E-1,3.669166565E-1
2.085306526E0,2.537175179E0,-1.006723285E0,1.930971146E-1
2.090306526E0,2.318791389E0,-1.182439566E0,1.821327209E-2
2.095306526E0,1.969536781E0,-1.308486938E0,-1.322460175E-1
2.100306526E0,1.488251209E0,-1.377336740E0,-2.527904510E-2
2.105306526E0,9.891214371E-1,-1.416750193E0,1.727762222E-1
2.110306526E0,5.733141899E-1,-1.419351935E0,1.579151154E-1
2.115306526E0,2.906804085E-1,-1.382944584E0,-1.197376251E-1
2.120306526E0,9.600687027E-2,-1.372709751E0,-4.106836319E-1
2.125306526E0,-5.421686172E-2,-1.313941240E0,-5.577554703E-1
2.130306526E0,-1.942315102E-1,-1.259217858E0,-4.818677902E-1
2.135306526E0,-3.156166077E-1,-1.214791536E0,-3.155183792E-1
2.140306526E0,-3.734726906E-1,-1.138103962E0,-1.915979385E-1
2.145306526E0,-4.492745399E-1,-1.015740395E0,-1.336698532E-1
2.150306526E0,-4.850978851E-1,-8.811490536E-1,-7.079696655E-2
2.155306526E0,-4.766187668E-1,-7.297989726E-1,1.613044739E-2
2.160306526E0,-4.002909660E-1,-5.515505075E-1,1.623611450E-1
2.165306526E0,-3.032937050E-1,-4.084112048E-1,2.925682068E-1
2.170306526E0,-2.005486488E-1,-3.453692794E-1,3.572549820E-1
2.175306526E0,-1.614298820E-1,-3.643727005E-1,4.521489143E-1
2.180306526E0,-7.461547852E-2,-3.465196788E-1,5.446710587E-1
2.185306526E0,1.316919327E-1,-3.161075711E-1,4.853968620E-1
2.190306526E0,4.896340370E-1,-2.028128505E-1,3.122901917E-1
2.195306526E0,1.280262947E0,1.634281278E-1,1.073827744E-1
2.200306526E0,1.617812634E0,2.922253013E-1,4.190025330E-1
2.205306526E0,1.728552818E0,1.831319332E-1,1.134003639E0
2.210306526E0,1.900687695E0,4.478475451E-2,8.561058044E-1
2.215306526E0,2.237337589E0,-5.816778541E-2,3.965845108E-1
2.220306526E0,2.496167660E0,-1.380819976E-1,1.036872864E-1
2.225306526E0,2.586338043E0,-1.705960929E-1,8.268070221E-2
2.230306526E0,2.562454224E0,-2.091144919E-1,1.966838837E-1
2.235306526E0,2.413605690E0,-2.537652850E-1,2.655763626E-1
2.240306526E0,2.158242702E0,-3.626199961E-1,1.970701218E-1
2.245306526E0,1.821303368E0,-4.343445897E-1,8.656883240E-2
2.250306526E0,1.519176960E0,-4.671820998E-1,-5.262851715E-2
2.255306526E0,9.384670258E-1,-3.688796759E-1,-2.330808640E-1
2.260306526E0,-4.156579971E-1,-3.804087639E-3,7.019042969E-3
2.265306526E0,-1.507528782E0,2.950102687E-1,4.453835487E-1
2.270306526E0,-2.290714264E0,5.091306567E-1,1.229314804E-1
2.275306526E0,-2.789187908E0,5.597791076E-1,-8.622512817E-1
2.280306526E0,-3.104753494E0,5.396558642E-1,-1.576318741E0
2.285306526E0,-3.305692673E0,4.918687940E-1,-1.648910522E0
2.290306526E0,-3.459078789E0,4.118419290E-1,-1.132907867E0
2.295306526E0,-3.583624125E0,3.248880506E-1,-3.604745865E-1
2.300306526E0,-3.587585688E0,2.184574008E-1,1.023340225E-1
2.305306526E0,-3.359958887E0,1.462075710E-1,1.024780273E-1
2.310306526E0,-2.906466722E0,1.787750721E-1,3.547668457E-3
2.315306526E0,-2.349091053E0,3.026284575E-1,-2.343330383E-1
2.320306526E0,-1.697544575E0,3.338552713E-1,-6.823406219E-1
2.325306526E0,-1.053015232E0,2.124239802E-1,-1.041196823E0
2.330306526E0,-4.718255997E-1,1.090281010E-1,-1.109187126E0
2.335306526E0,-2.426719666E-2,1.089195609E-1,-6.644487381E-1
2.340306526E0,2.067070007E-1,1.310016513E-1,-6.524276733E-2
2.345306526E0,3.584179878E-1,6.023639441E-2,2.757387161E-1
2.350306526E0,7.265853882E-1,-2.750802040E-2,5.551128387E-1
2.355306526E0,9.799661636E-1,2.086678147E-1,1.437021255E0
2.360306526E0,8.593177795E-1,2.641943693E-1,1.041099548E0
2.365306526E0,1.015722275E0,2.096796632E-1,5.908489227E-2
2.370306526E0,1.173671246E0,2.629835010E-1,-2.822818756E-1
2.375306526E0,1.099176407E0,2.853404284E-1,-2.172355652E-1
2.380306526E0,7.675094604E-1,2.939944863E-1,-4.600048065E-2
2.385306526E0,4.453015327E-1,2.382408977E-1,4.336071014E-2
2.390306526E0,2.183766365E-1,1.163640618E-1,-6.644535065E-2
2.395306526E0,7.086181641E-2,5.036658049E-2,-2.592554092E-1
2.400306526E0,-1.571369171E-2,4.963386059E-2,-3.533353806E-1
2.405306526E0,-4.214525223E-2,4.706484079E-2,-3.594284058E-1
2.410306526E0,-7.590436935E-2,3.489309549E-2,-2.264785767E-1
2.415306526E0,-1.489753723E-1,4.987537861E-3,1.635074615E-2
2.420306526E0,-2.421503067E-1,-8.012685180E-2,2.790241241E-1
2.425306526E0,-3.490924835E-1,-1.621760130E-1,4.626913071E-1
2.430306526E0,-3.640394211E-1,-2.348661423E-1,4.638724327E-1
2.435306526E0,-3.453302383E-1,-2.878594398E-1,3.580379486E-1
2.440306526E0,-3.050770760E-1,-3.136519194E-1,1.905956268E-1
2.445306526E0,-2.741441727E-1,-3.092656434E-1,7.108688354E-3
2.450306526E0,-3.142113686E-1,-2.577079833E-1,-1.369342804E-1
2.455306526E0,-3.935699463E-1,-2.247265726E-1,-1.767721176E-1
2.460306526E0,-4.030275345E-1,-2.098196298E-1,-1.524915695E-1
2.465306526E0,-3.655209541E-1,-1.939883828E-1,-1.963996887E-1
2.470306526E0,-2.797031403E-1,-1.403726339E-1,-2.642784119E-1
2.475306526E0,-1.955943108E-1,-6.344008446E-2,-3.208551407E-1
2.480306526E0,-1.301517487E-1,-1.154485345E-2,-3.710718155E-1
2.485306526E0,-9.357452393E-2,5.575898290E-2,-3.563194275E-1
2.490306526E0,-4.559516907E-2,1.139344871E-1,-2.935409546E-1
2.495306526E0,-8.258819580E-3,1.277524829E-1,-1.755323410E-1
2.500306526E0,1.881456375E-2,1.203708053E-1,-2.601146698E-2
2.505306526E0,3.506660461E-3,1.084821522E-1,1.017999649E-1
2.510306526E0,-7.578372955E-3,7.070684433E-2,1.538066864E-1
2.515306526E0,6.231307983E-3,3.818410635E-2,1.302251816E-1
2.520306526E0,4.482793808E-2,3.924748302E-2,5.042743683E-2
2.525306526E0,1.139569283E-1,9.748953581E-2,-1.067066193E-2
2.530306526E0,1.615839005E-1,1.602604985E-1,6.963729858E-3
2.535306526E0,2.280526161E-1,2.415285408E-1,7.472038269E-2
2.540306526E0,2.824301720E-1,3.028714061E-1,1.167917252E-1
2.545306526E0,2.953681946E-1,3.515937924E-1,1.608619690E-1
2.550306526E0,2.841343880E-1,3.595192432E-1,1.865758896E-1
2.555306526E0,2.429370880E-1,3.500235379E-1,2.032775879E-1
2.560306526E0,1.958661079E-1,3.022758961E-1,1.988096237E-1
2.565306526E0,1.807823181E-1,2.004485130E-1,1.694850922E-1
2.570306526E0,1.687273979E-1,7.431283593E-2,1.403751373E-1
2.575306526E0,1.418271065E-1,-5.230355263E-2,5.118179321E-2
2.580306526E0,8.329868317E-2,-1.841269433E-1,-3.964519501E-2
2.585306526E0,-2.076292038E-2,-2.623992562E-1,-8.491230011E-2
2.590306526E0,-1.353383064E-1,-3.464445472E-1,-1.221160889E-1
2.595306526E0,-2.290387154E-1,-4.084246755E-1,-1.372499466E-1
2.600306526E0,-2.732872963E-1,-4.359042943E-1,-1.787176132E-1
2.605306526E0,-2.704868317E-1,-4.284358621E-1,-1.785812378E-1
2.610306526E0,-2.407941818E-1,-4.276607037E-1,-1.326961517E-1
2.615306526E0,-2.034788132E-1,-4.224656820E-1,-7.182502747E-2
2.620306526E0,-1.845326424E-1,-3.864278495E-1,-4.670238495E-2
2.625306526E0,-1.643071175E-1,-3.307597637E-1,-2.463340759E-2
2.630306526E0,-1.175689697E-1,-2.566972077E-1,-3.570747375E-2
2.635306526E0,-6.167888641E-2,-1.696765721E-1,-4.139232635E-2
2.640306526E0,-1.958656311E-2,-9.853501618E-2,-1.925659180E-2
2.645306526E0,-1.895284653E-2,-8.851134777E-2,7.741928101E-3
2.650306526E0,-3.095626831E-2,-6.321540475E-2,5.223369598E-2
2.655306526E0,-4.921865463E-2,-1.744310558E-2,7.342624664E-2
2.660306526E0,-6.359338760E-2,-1.362439990E-2,2.941894531E-2
2.665306526E0,-7.686376572E-2,-2.221406996E-2,-1.516532898E-2
2.670306526E0,-8.103227615E-2,-3.485485911E-2,-4.754257202E-2
2.675306526E0,-8.610057831E-2,-2.288930118E-2,-6.043434143E-2
2.680306526E0,-9.261655807E-2,-5.759119987E-3,-3.710556030E-2
2.685306526E0,-1.156601906E-1,1.297619194E-2,2.527236938E-4
2.690306526E0,-1.316280365E-1,2.288616449E-2,4.517364502E-2
2.695306526E0,-1.274280548E-1,3.289739043E-2,2.530288696E-2
2.700306526E0,-1.277818680E-1,2.515444160E-2,1.177406311E-2
2.705306526E0,-9.179925919E-2,-9.618252516E-3,5.558013916E-3
2.710306526E0,-5.992650986E-2,-2.601177990E-2,-2.548885345E-2
2.715306526E0,-3.951740265E-2,-5.823504925E-2,-3.955268860E-2
2.720306526E0,-2.267789841E-2,-5.416492745E-2,-4.700660706E-3
2.725306526E0,-1.937150955E-2,-4.115048796E-2,3.416347504E-2
2.730306526E0,-4.964351654E-3,-3.614201397E-2,5.981636047E-2
2.735306526E0,2.987575531E-2,2.909649163E-3,1.167392731E-1
2.740306526E0,8.011293411E-2,5.765234679E-2,1.270856857E-1
2.745306526E0,1.595697403E-1,1.270564646E-1,8.911418915E-2
2.750306526E0,2.460956573E-1,1.922345906E-1,2.150154114E-2
2.755306526E0,3.396916389E-1,2.290035635E-1,-3.681373596E-2
2.760306526E0,3.963270187E-1,2.565496564E-1,-4.063320160E-2
2.765306526E0,4.123620987E-1,2.918958366E-1,-4.330158234E-2
2.770306526E0,4.058637619E-1,3.094814122E-1,5.836486816E-3
2.775306526E0,3.942198753E-1,3.336699009E-1,5.535507202E-2
2.780306526E0,4.170932770E-1,3.503092825E-1,9.400749207E-2
2.785306526E0,4.402270317E-1,3.263443112E-1,7.138824463E-2
2.790306526E0,4.721937180E-1,3.144100308E-1,6.685066223E-2
2.795306526E0,4.655203819E-1,3.147743344E-1,9.442043304E-2
2.800306526E0,4.527640343E-1,2.892749608E-1,1.300582886E-1
2.805306526E0,4.265785217E-1,2.858953476E-1,1.454887390E-1
2.810306526E0,4.037632942E-1,2.819871306E-1,1.494035721E-1
2.815306526E0,3.514032364E-1,2.716833949E-1,1.026382446E-1
2.820306526E0,2.696571350E-1,2.526394725E-1,3.101253510E-2
2.825306526E0,1.652398109E-1,2.243184149E-1,-6.434440613E-3
2.830306526E0,2.777910233E-2,1.805712283E-1,7.558822632E-3
2.835306526E0,-2.380466461E-1,-8.456900716E-3,1.728057861E-3
2.840306526E0,-4.122896194E-1,-1.410686672E-1,1.115798950E-2
2.845306526E0,-2.635078430E-1,-3.980997950E-2,5.014324188E-2
2.850306526E0,-2.347316742E-1,2.189672738E-2,-2.470207214E-2
2.855306526E0,-2.482857704E-1,-7.718428969E-3,-4.411125183E-2
2.860306526E0,-1.458597183E-1,3.073924035E-2,-4.216003418E-2
2.865306526E0,-3.351640701E-2,7.752516866E-2,-6.633281708E-2
2.870306526E0,1.006159782E-1,1.371648610E-1,-7.283687592E-2
2.875306526E0,2.122869492E-1,2.033903301E-1,-4.573345184E-2
2.880306526E0,2.963280678E-1,2.481173128E-1,1.725006104E-2
2.885306526E0,3.468284607E-1,3.135623336E-1,9.573745728E-2
2.890306526E0,3.796582222E-1,3.583864868E-1,1.792573929E-1
2.895306526E0,3.927326202E-1,3.823814392E-1,2.244634628E-1
2.900306526E0,4.062094688E-1,3.872890472E-1,2.378473282E-1
2.905306526E0,4.059381485E-1,3.841888905E-1,1.874074936E-1
2.910306526E0,3.985862732E-1,3.798410892E-1,1.299409866E-1
2.915306526E0,3.769235611E-1,3.984570503E-1,9.455680847E-2
2.920306526E0,3.388657570E-1,4.067601264E-1,9.179973602E-2
2.925306526E0,3.059558868E-1,3.878608942E-1,9.213447571E-2
2.930306526E0,2.448730469E-1,3.722824454E-1,8.513641357E-2
2.935306526E0,1.901993752E-1,3.366118670E-1,4.392433167E-2
2.940306526E0,1.350440979E-1,3.351653814E-1,-1.711273193E-2
2.945306526E0,9.530973434E-2,3.270771205E-1,-9.993457794E-2
2.950306526E0,5.453824997E-2,2.983744442E-1,-1.836290359E-1
2.955306526E0,2.184867859E-2,2.479442358E-1,-1.927127838E-1
2.960306526E0,1.793336868E-2,1.881702393E-1,-1.551456451E-1
2.965306526E0,3.150272369E-2,1.198902801E-1,-6.710243225E-2
2.970306526E0,5.923509598E-2,4.500119388E-2,-2.036380768E-2
2.975306526E0,7.964086533E-2,-2.920407057E-2,-1.411151886E-2
2.980306526E0,8.538055420E-2,-9.288953245E-2,-3.334045410E-3
2.985306526E0,6.838655472E-2,-1.458086371E-1,3.182697296E-2
2.990306526E0,4.565954208E-2,-2.033561915E-1,3.453445435E-2
2.995306526E0,2.281141281E-2,-2.492477298E-1,3.835868835E-2
3.000306526E0,9.485244751E-3,-3.078819215E-1,1.921463013E-2
3.005306526E0,-1.407861710E-2,-3.556490541E-1,-2.588462830E-2
3.010306526E0,-4.359102249E-2,-3.935487568E-1,-4.643440247E-2
3.015306526E0,-7.981777191E-2,-4.501593113E-1,-5.614471436E-2
3.020306526E0,-1.369061470E-1,-4.887243807E-1,-2.847385406E-2
3.025306526E0,-1.685857773E-1,-5.330342650E-1,-2.398204803E-2
3.030306526E0,-1.705236435E-1,-5.631421208E-1,-1.248073578E-2
3.035306526E0,-1.862015724E-1,-5.734668970E-1,3.238201141E-2
3.040306526E0,-1.784129143E-1,-5.720198154E-1,-1.601219177E-3
3.045306526E0,-1.628575325E-1,-5.726593733E-1,-2.768993378E-2
3.050306526E0,-1.416339874E-1,-5.786069632E-1,-8.095264435E-2
3.055306526E0,-1.094717979E-1,-5.799002647E-1,-1.195287704E-1
3.060306526E0,-8.841419220E-2,-5.507945418E-1,-1.073846817E-1
3.065306526E0,-7.709312439E-2,-5.130134821E-1,-7.788562775E-2
3.070306526E0,-7.090997696E-2,-4.638338387E-1,-2.363967896E-2
3.075306526E0,-5.654621124E-2,-4.132891893E-1,8.296012878E-3
3.080306526E0,-2.215051651E-2,-3.322795033E-1,1.458168030E-3
3.085306526E0,9.804725647E-3,-2.668512166E-1,-1.097869873E-2
3.090306526E0,5.379772186E-2,-2.043300867E-1,-3.041934967E-2
3.095306526E0,9.641075134E-2,-1.524953842E-1,-1.447010040E-2
3.100306526E0,1.442613602E-1,-1.428271532E-1,-2.250671387E-4
3.105306526E0,1.968045235E-1,-1.637393236E-1,5.689811707E-2
3.110306526E0,2.298192978E-1,-1.862786114E-1,1.243782043E-1
3.115306526E0,2.373929024E-1,-1.981508732E-1,1.702032089E-1
3.120306526E0,2.311429977E-1,-2.064966857E-1,1.848011017E-1
3.125306526E0,1.886014938E-1,-1.993465722E-1,1.326551437E-1
3.130306526E0,1.536355019E-1,-1.698806584E-1,5.255985260E-2
3.135306526E0,9.768009186E-2,-1.461013556E-1,-3.383255005E-2
3.140306526E0,6.511449814E-2,-1.106468737E-1,-8.839511871E-2
3.145306526E0,2.024269104E-2,-7.451570034E-2,-9.552001953E-2
3.150306526E0,4.733085632E-3,-3.479272127E-2,-8.399486542E-2
3.155306526E0,-1.804780960E-2,3.047615290E-3,-6.272125244E-2
3.160306526E0,-1.735973358E-2,2.854269743E-2,-8.346176147E-2
3.165306526E0,-3.191232681E-2,6.011745334E-2,-8.668422699E-2
3.170306526E0,-2.976942062E-2,1.083459258E-1,-9.816265106E-2
3.175306526E0,-4.128742218E-2,1.524699330E-1,-6.326961517E-2
3.180306526E0,-2.618408203E-2,2.007806450E-1,-2.204799652E-2
3.185306526E0,1.783370972E-3,2.511649728E-1,3.032112122E-2
3.190306526E0,2.148532867E-2,3.125627339E-1,8.843612671E-2
3.195306526E0,5.274343491E-2,3.551800847E-1,1.381921768E-1
3.200306526E0,7.246923447E-2,4.215776026E-1,1.672143936E-1
3.205306526E0,8.578777313E-2,4.662481248E-1,1.471786499E-1
3.210306526E0,9.650564194E-2,5.020053387E-1,1.002140045E-1
3.215306526E0,9.909248352E-2,5.473425388E-1,3.031063080E-2
3.220306526E0,9.530067444E-2,5.600367785E-1,-1.253795624E-2
3.225306526E0,8.096933365E-2,5.578777790E-1,-1.531028748E-2
3.230306526E0,5.151319504E-2,5.517756343E-1,2.795314789E-2
3.235306526E0,3.583621979E-2,5.184739232E-1,5.316448212E-2
3.240306526E0,2.901268005E-2,4.702705443E-1,1.621150970E-2
3.245306526E0,3.174495697E-2,4.150221050E-1,-1.758098602E-2
3.250306526E0,2.437162399E-2,3.613023162E-1,-5.314350128E-2
3.255306526E0,-2.082347870E-3,2.998054624E-1,-5.214595795E-2
3.260306526E0,-3.441810608E-2,2.432301939E-1,-5.349159241E-3
3.265306526E0,-6.708240509E-2,1.882179081E-1,3.762340546E-2
3.270306526E0,-6.414651871E-2,1.176463962E-1,7.957458496E-2
3.275306526E0,-4.968070984E-2,4.203814268E-2,9.291934967E-2
3.280306526E0,-3.240585327E-3,-4.602292180E-2,8.064460754E-2
3.285306526E0,4.503822327E-2,-1.235222220E-1,6.202888489E-2
3.290306526E0,6.772947311E-2,-1.915160269E-1,5.431461334E-2
3.295306526E0,5.504226685E-2,-2.220649570E-1,2.994823456E-2
3.300306526E0,3.961038589E-2,-2.759287357E-1,2.329254150E-2
3.305306526E0,3.502655029E-2,-3.221875727E-1,-2.910995483E-2
3.310306526E0,2.544069290E-2,-3.564695120E-1,-4.813575745E-2
3.315306526E0,2.346515656E-3,-4.015867114E-1,-7.933425903E-2
3.320306526E0,-3.498268127E-2,-4.042719901E-1,-1.018581390E-1
3.325306526E0,-8.217573166E-2,-4.293408394E-1,-1.156511307E-1
3.330306526E0,-1.287956238E-1,-4.411368668E-1,-1.054143906E-1
3.335306526E0,-1.611027718E-1,-4.277949035E-1,-7.988548279E-2
3.340306526E0,-1.608576775E-1,-3.881231844E-1,-5.332946777E-2
3.345306526E0,-1.217019558E-1,-3.419811130E-1,-5.608463287E-2
3.350306526E0,-7.992124557E-2,-2.705248892E-1,-9.506034851E-2
3.355306526E0,-3.859901428E-2,-2.352191508E-1,-1.118221283E-1
3.360306526E0,-3.306245804E-2,-2.142317295E-1,-7.403755188E-2
3.365306526E0,-3.466558456E-2,-1.994729340E-1,-1.557445526E-2
3.370306526E0,-9.994983673E-3,-1.757962406E-1,7.481098175E-2
3.375306526E0,2.920293808E-2,-1.752839535E-1,1.184186935E-1
3.380306526E0,7.801437378E-2,-1.678483486E-1,1.310815811E-1
3.385306526E0,1.265158653E-1,-1.610536873E-1,1.255636215E-1
3.390306526E0,1.154513359E-1,-1.453353167E-1,1.106367111E-1
3.395306526E0,6.448316574E-2,-1.287713200E-1,9.188175201E-2
3.400306526E0,6.816864014E-3,-9.824310243E-2,4.972362518E-2
3.405306526E0,-2.834653854E-2,-4.729278386E-2,3.743171692E-3
3.410306526E0,-2.939605713E-2,-5.474358797E-3,-6.958770752E-2
3.415306526E0,-2.599716187E-2,3.675693274E-2,-1.038408279E-1
3.420306526E0,-3.607940674E-2,7.498382032E-2,-9.913063049E-2
3.425306526E0,-5.079460144E-2,8.616174757E-2,-5.891132355E-2
3.430306526E0,-5.808210373E-2,9.445041418E-2,-3.180313110E-2
3.435306526E0,-6.318187714E-2,9.385249019E-2,-2.114105225E-2
3.440306526E0,-3.903341293E-2,1.159345359E-1,-1.101875305E-2
3.445306526E0,1.631975174E-2,1.277244538E-1,-2.242183685E-2
3.450306526E0,5.731964111E-2,1.587216854E-1,-3.974342346E-2
3.455306526E0,7.332277298E-2,1.721394360E-1,-1.594448090E-2
3.460306526E0,6.365919113E-2,1.980887651E-1,2.432250977E-2
3.465306526E0,4.774141312E-2,2.108280361E-1,4.597091675E-2
3.470306526E0,2.445125580E-2,2.172979712E-1,4.231262207E-2
3.475306526E0,2.212572098E-2,2.141364366E-1,4.409790039E-3
3.480306526E0,1.814031601E-2,2.203562260E-1,-3.190040588E-2
3.485306526E0,-5.712985992E-3,2.230237722E-1,-2.760124207E-2
3.490306526E0,-1.765537262E-2,1.980067790E-1,1.795768738E-2
3.495306526E0,-1.928234100E-2,1.848143488E-1,6.022262573E-2
3.500306526E0,-2.614831924E-2,1.847387552E-1,6.952476501E-2
3.505306526E0,-3.477811813E-2,1.803233773E-1,6.986522675E-2
3.510306526E0,-4.099416733E-2,1.664465368E-1,5.093288422E-2
3.515306526E0,-6.701755524E-2,1.629743725E-1,2.401447296E-2
3.520306526E0,-8.247089386E-2,1.492913514E-1,1.729869843E-2
3.525306526E0,-1.043367386E-1,1.432480961E-1,7.278442383E-3
3.530306526E0,-7.397794724E-2,1.275617480E-1,3.063201904E-3
3.535306526E0,-4.055023193E-2,9.012973309E-2,-9.926795959E-3
3.540306526E0,-1.990795135E-3,4.628644884E-2,1.552581787E-3
3.545306526E0,-1.676559448E-3,4.966214299E-3,-1.286506653E-3
3.550306526E0,-1.157474518E-2,-1.424169540E-2,3.245353699E-3
3.555306526E0,-2.185058594E-2,-2.399708331E-2,3.015995026E-2
3.560306526E0,-2.706527710E-2,-3.089854121E-2,-1.379871368E-2
3.565306526E0,1.214694977E-2,-2.877290547E-2,-4.790973663E-2
3.570306526E0,5.212116241E-2,-3.497788310E-2,-3.872299194E-2
3.575306526E0,6.425523758E-2,-6.139796972E-2,-2.884864807E-2
3.580306526E0,7.796144485E-2,-9.375934303E-2,5.731582642E-3
3.585306526E0,6.734848022E-2,-1.054773778E-1,2.722930908E-2
3.590306526E0,6.342220306E-2,-1.585151106E-1,6.304931641E-2
3.595306526E0,8.713245392E-2,-1.797074378E-1,9.011268616E-2
3.600306526E0,1.210398674E-1,-1.957466006E-1,8.455276489E-2
3.605306526E0,1.573781967E-1,-1.893994808E-1,4.854965210E-2
3.610306526E0,1.823096275E-1,-1.867431253E-1,1.312351227E-2
3.615306526E0,1.786437035E-1,-1.439339817E-1,-3.456783295E-2
3.620306526E0,1.434259415E-1,-9.997680783E-2,-3.957557678E-2
3.625306526E0,9.626626968E-2,-6.814341247E-2,-5.826663971E-2
3.630306526E0,7.452583313E-2,-4.312634468E-2,-7.341003418E-2
3.635306526E0,6.517314911E-2,-3.137713671E-2,-9.781169891E-2
3.640306526E0,6.768608093E-2,-2.908469737E-2,-9.627723694E-2
3.645306526E0,8.063173294E-2,-1.254148781E-2,-6.651496887E-2
3.650306526E0,8.204555511E-2,-4.262596369E-3,-1.295375824E-2
3.655306526E0,7.672071457E-2,4.913195968E-3,2.383899689E-2
3.660306526E0,6.522560120E-2,3.202800453E-2,3.467273712E-2
3.665306526E0,4.341936111E-2,6.782612205E-2,1.730728149E-2
3.670306526E0,2.520465851E-2,1.061381400E-1,3.131103516E-2
3.675306526E0,2.369642258E-2,1.168623120E-1,2.601623535E-2
3.680306526E0,4.131650925E-2,1.419354975E-1,2.052783966E-2
3.685306526E0,5.489301682E-2,1.724343002E-1,2.383708954E-2
3.690306526E0,5.397987366E-2,2.177271247E-1,3.183174133E-2
3.695306526E0,4.469490051E-2,2.468146384E-1,2.883815765E-2
3.700306526E0,3.623676300E-2,2.830007076E-1,2.895450592E-2
3.705306526E0,8.434295654E-3,2.992795408E-1,2.270698547E-2
3.710306526E0,5.591392517E-3,3.027975559E-1,1.367187500E-2
3.715306526E0,2.089405060E-2,3.115306795E-1,4.829406738E-3
3.720306526E0,4.895877838E-2,3.025372028E-1,1.310253143E-2
3.725306526E0,1.028676033E-1,2.588863075E-1,1.318931580E-2
3.730306526E0,1.371293068E-1,2.170391977E-1,3.024101257E-2
3.735306526E0,1.635975838E-1,1.916171610E-1,7.579708099E-2
3.740306526E0,1.786818504E-1,1.692170203E-1,9.633445740E-2
3.745306526E0,1.933741570E-1,1.322083920E-1,6.474304199E-2
3.750306526E0,2.323269844E-1,9.345821291E-2,5.416870117E-2
3.755306526E0,2.817382812E-1,4.022140801E-2,6.213188171E-3
3.760306526E0,2.841849327E-1,3.813564777E-3,-1.676368713E-2
3.765306526E0,2.731471062E-1,-3.255668283E-2,1.781463623E-3
3.770306526E0,2.436118126E-1,-1.103610247E-1,2.758121490E-2
3.775306526E0,2.109060287E-1,-1.804174185E-1,5.351543427E-2
3.780306526E0,1.785764694E-1,-2.388998419E-1,6.000614166E-2
3.785306526E0,1.658878326E-1,-2.871171832E-1,1.793670654E-2
3.790306526E0,1.379446983E-1,-2.948170900E-1,-1.969051361E-2
3.795306526E0,8.422708511E-2,-2.825062573E-1,-7.016754150E-2
3.800306526E0,4.151821136E-2,-2.857576609E-1,-9.588336945E-2
3.805306526E0,4.653930664E-3,-3.051007092E-1,-7.809925079E-2
3.810306526E0,-3.070402145E-2,-3.156756461E-1,-7.339096069E-2
3.815306526E0,-2.836418152E-2,-3.255901933E-1,-7.255649567E-2
3.820306526E0,-2.356147766E-2,-3.553378582E-1,-3.657913208E-2
3.825306526E0,-1.845455170E-2,-3.825854361E-1,7.246017456E-3
3.830306526E0,-5.226135254E-3,-3.824171126E-1,5.558204651E-2
3.835306526E0,-1.373720169E-2,-3.775515556E-1,8.391571045E-2
3.840306526E0,-1.957845688E-2,-3.534927070E-1,7.019519806E-2
3.845306526E0,-2.085638046E-2,-3.124978542E-1,4.415512085E-2
3.850306526E0,-2.567481995E-2,-2.545046806E-1,4.683494568E-3
3.855306526E0,-3.822898865E-2,-1.840704679E-1,-3.905773163E-2
3.860306526E0,-4.637622833E-2,-1.264797747E-1,-5.662536621E-2
3.865306526E0,-4.488325119E-2,-7.836383581E-2,-3.158950806E-2
3.870306526E0,-2.822494507E-2,-6.435397267E-2,-2.668666840E-2
3.875306526E0,1.483583450E-2,-5.115571618E-2,-2.938461304E-2
3.880306526E0,8.069610596E-2,-3.051042557E-2,-3.553581238E-2
3.885306526E0,1.315126419E-1,-1.470267773E-3,-9.422302246E-3
3.890306526E0,1.536588669E-1,1.247489452E-2,4.094409943E-2
3.895306526E0,1.781268120E-1,3.585991263E-2,9.664726257E-2
3.900306526E0,1.941213608E-1,3.197576106E-2,1.161031723E-1
3.905306526E0,2.400727272E-1,1.395344734E-4,9.655761719E-2
3.910306526E0,2.555694580E-1,2.329841256E-3,6.650161743E-2
3.915306526E0,2.391338348E-1,-2.104431391E-3,2.926540375E-2
3.920306526E0,2.196216583E-1,2.202776074E-2,7.310867310E-3
3.925306526E0,1.904783249E-1,4.422496259E-2,3.888893127E-2
3.930306526E0,1.640276909E-1,4.095999897E-2,3.382015228E-2
3.935306526E0,1.468892097E-1,2.151232958E-2,-2.546310425E-3
3.940306526E0,1.208190918E-1,-1.964770257E-2,-5.613899231E-2
3.945306526E0,9.455966949E-2,-6.603899598E-2,-9.273433685E-2
3.950306526E0,3.984737396E-2,-9.884241223E-2,-1.117124557E-1
3.955306526E0,-5.666255951E-3,-1.181234270E-1,-9.553527832E-2
3.960306526E0,-4.900646210E-2,-1.507912427E-1,-8.229541779E-2
3.965306526E0,-8.859348297E-2,-1.847885847E-1,-6.223583221E-2
3.970306526E0,-1.095728874E-1,-1.873906553E-1,-4.086399078E-2
3.975306526E0,-1.278162003E-1,-1.876698136E-1,-3.991603851E-2
3.980306526E0,-1.520428658E-1,-1.642525196E-1,-3.246021271E-2
3.985306526E0,-1.704545021E-1,-1.053950787E-1,-2.246284485E-2
3.990306526E0,-1.641554832E-1,-3.904260695E-2,-2.581501007E-2
3.995306526E0,-1.578612328E-1,5.407631397E-5,-2.516937256E-2
4.000306526E0,-1.606063843E-1,1.783950627E-2,-2.273941040E-2
4.005306526E0,-1.473546028E-1,4.109118879E-2,-8.639335632E-3
4.010306526E0,-1.550679207E-1,3.358472884E-2,2.137184143E-2
4.015306526E0,-1.787638664E-1,1.139287651E-2,5.831813812E-2
4.020306526E0,-1.950707436E-1,-1.612752676E-4,6.673717499E-2
4.025306526E0,-2.328338623E-1,-8.943647146E-3,5.435562134E-2
4.030306526E0,-2.634239197E-1,-3.833264112E-3,3.097152710E-2
4.035306526E0,-2.749648094E-1,-4.288204014E-2,-2.249431610E-2
4.040306526E0,-2.746186256E-1,-7.049451768E-2,-4.171371460E-2
4.045306526E0,-2.544198036E-1,-1.238783449E-1,-5.285930634E-2
4.050306526E0,-2.444820404E-1,-1.570395827E-1,-6.141567230E-2
4.055306526E0,-2.465152740E-1,-1.521367729E-1,-5.561828613E-2
4.060306526E0,-2.392230034E-1,-1.250270307E-1,-3.714656830E-2
4.065306526E0,-2.483592033E-1,-9.583835304E-2,-3.619194031E-2
4.070306526E0,-2.471542358E-1,-5.636568367E-2,-6.427097321E-2
4.075306526E0,-2.550845146E-1,-2.105571330E-2,-9.672164917E-2
4.080306526E0,-2.512822151E-1,1.513312757E-2,-1.434755325E-1
4.085306526E0,-2.386097908E-1,6.378622353E-2,-1.848764420E-1
4.090306526E0,-2.249646187E-1,9.347946942E-2,-1.815643311E-1
4.095306526E0,-2.177743912E-1,1.598109007E-1,-1.172876358E-1
4.100306526E0,-2.220668793E-1,2.051684707E-1,-3.991794586E-2
4.105306526E0,-2.268075943E-1,2.597989440E-1,2.549648285E-2
4.110306526E0,-2.330827713E-1,3.024714589E-1,5.882167816E-2
4.115306526E0,-2.054300308E-1,3.602535725E-1,2.733516693E-2
4.120306526E0,-1.974463463E-1,4.119321108E-1,-2.742767334E-3
4.125306526E0,-1.959781647E-1,4.299815297E-1,-1.436805725E-2
4.130306526E0,-1.832799911E-1,4.508761466E-1,1.245975494E-2
4.135306526E0,-1.988830566E-1,4.722444415E-1,3.941726685E-2
4.140306526E0,-2.226591110E-1,4.929585457E-1,6.422710419E-2
4.145306526E0,-2.600650787E-1,4.829829335E-1,8.579540253E-2
4.150306526E0,-2.958168983E-1,4.631701410E-1,7.785129547E-2
4.155306526E0,-3.163175583E-1,4.329177141E-1,3.301525116E-2
4.160306526E0,-3.468127251E-1,4.089325368E-1,-1.922035217E-2
4.165306526E0,-3.558878899E-1,3.989567161E-1,-8.428859711E-2
4.170306526E0,-3.942761421E-1,3.741244674E-1,-9.562110901E-2
4.175306526E0,-4.085612297E-1,3.464498520E-1,-9.530067444E-2
4.180306526E0,-4.229578972E-1,3.255915940E-1,-7.086467743E-2
4.185306526E0,-4.174680710E-1,3.082542419E-1,-7.531738281E-2
4.190306526E0,-3.852291107E-1,2.822677493E-1,-1.031970978E-1
4.195306526E0,-3.375921249E-1,2.453932613E-1,-1.201295853E-1
4.200306526E0,-3.028545380E-1,2.203719765E-1,-1.164846420E-1
4.205306526E0,-2.607626915E-1,1.938529015E-1,-1.025362015E-1
4.210306526E0,-2.147445679E-1,1.597677767E-1,-4.437160492E-2
4.215306526E0,-1.595015526E-1,1.338005215E-1,-1.565837860E-2
4.220306526E0,-1.064090729E-1,8.105358481E-2,4.134082794E-2
4.225306526E0,-7.973098755E-2,3.535798192E-2,9.696769714E-2
4.230306526E0,-5.169916153E-2,-1.310201455E-2,1.077661514E-1
4.235306526E0,-3.699970245E-2,-7.176178694E-2,9.456062317E-2
4.240306526E0,-2.628135681E-2,-1.116978675E-1,7.153320312E-2
4.245306526E0,-3.588676453E-2,-1.417628974E-1,5.006313324E-2
4.250306526E0,-4.201555252E-2,-1.361982524E-1,1.049995422E-2
4.255306526E0,-6.397962570E-2,-1.125123650E-1,-6.193161011E-3
4.260306526E0,-7.454490662E-2,-8.779269457E-2,-4.261493683E-2
4.265306526E0,-7.613658905E-2,-8.274804056E-2,-8.485031128E-2
4.270306526E0,-5.359411240E-2,-8.891841769E-2,-1.377515793E-1
4.275306526E0,-5.047750473E-2,-1.175901592E-1,-1.332254410E-1
4.280306526E0,-3.221416473E-2,-1.304558516E-1,-1.033668518E-1
4.285306526E0,-1.753807068E-2,-1.730751991E-1,-2.654552460E-2
4.290306526E0,7.633209229E-3,-2.255179584E-1,1.653766632E-2
4.295306526E0,1.829719543E-2,-2.499606609E-1,4.110717773E-2
4.300306526E0,1.808547974E-2,-2.891544700E-1,5.827045441E-2
4.305306526E0,-7.863044739E-4,-3.194789588E-1,6.909751892E-2
4.310306526E0,-1.046371460E-2,-3.298802078E-1,2.662944794E-2
4.315306526E0,-3.162670135E-2,-3.491818309E-1,5.414009094E-3
4.320306526E0,-6.340456009E-2,-3.567450643E-1,-3.022480011E-2
4.325306526E0,-9.366464615E-2,-3.526918292E-1,-4.996299744E-2
4.330306526E0,-1.276540756E-1,-3.171022236E-1,-3.479862213E-2
4.335306526E0,-1.557803154E-1,-3.098888099E-1,-3.779029846E-2
4.340306526E0,-1.578583717E-1,-2.866763175E-1,-4.799652100E-2
4.345306526E0,-1.581501961E-1,-2.577629387E-1,-5.000591278E-2
4.350306526E0,-1.400060654E-1,-2.242618501E-1,-6.420040131E-2
4.355306526E0,-1.403493881E-1,-1.647195220E-1,-4.890346527E-2
4.360306526E0,-1.360449791E-1,-1.165992245E-1,-6.865692139E-2
4.365306526E0,-1.198120117E-1,-6.629408896E-2,-5.614185333E-2
4.370306526E0,-1.023716927E-1,-1.770148426E-2,-2.850341797E-2
4.375306526E0,-8.231019974E-2,2.421490848E-2,5.506515503E-3
4.380306526E0,-4.718017578E-2,5.016995221E-2,2.084827423E-2
4.385306526E0,-2.204847336E-2,8.893505484E-2,3.941535950E-2
4.390306526E0,-6.982803345E-3,1.353349984E-1,4.588985443E-2
4.395306526E0,-1.275777817E-2,1.693243086E-1,5.671882629E-2
4.400306526E0,1.300811768E-3,2.048244923E-1,8.303165436E-2
4.405306526E0,3.845119476E-2,2.038736939E-1,7.545471191E-2
4.410306526E0,8.499336243E-2,1.953823268E-1,3.980827332E-2
4.415306526E0,9.463787079E-2,1.934680939E-1,2.675533295E-2
4.420306526E0,9.619426727E-2,1.749487817E-1,1.211547852E-2
4.425306526E0,7.137393951E-2,1.700565666E-1,8.913040161E-3
4.430306526E0,1.692295074E-2,1.734913886E-1,4.710197449E-3
4.435306526E0,-1.790571213E-2,1.842653155E-1,-5.662918091E-3
4.440306526E0,-4.101371765E-2,1.901892722E-1,-4.201984406E-2
4.445306526E0,-5.159044266E-2,1.964802891E-1,-6.914710999E-2
4.450306526E0,-5.988788605E-2,2.085610628E-1,-7.873916626E-2
4.455306526E0,-8.979368210E-2,2.010383606E-1,-4.238033295E-2
4.460306526E0,-9.543991089E-2,1.882882863E-1,2.075195312E-3
4.465306526E0,-8.694744110E-2,1.672498733E-1,1.538276672E-3
4.470306526E0,-7.200098038E-2,1.554623842E-1,3.331184387E-3
4.475306526E0,-5.517196655E-2,1.414864361E-1,1.743984222E-2
4.480306526E0,-4.924583435E-2,1.268050373E-1,3.405189514E-2
4.485306526E0,-2.313327789E-2,1.209372506E-1,4.326152802E-2
4.490306526E0,1.193475723E-2,1.178599149E-1,1.765632629E-2
4.495306526E0,5.328989029E-2,1.369203329E-1,2.247142792E-2
4.500306526E0,8.613729477E-2,1.751494110E-1,5.365371704E-3
4.505306526E0,1.028327942E-1,1.731841266E-1,-5.852699280E-3
4.510306526E0,1.015892029E-1,1.651060283E-1,7.027626038E-3
4.515306526E0,1.227736473E-1,1.389992237E-1,2.578544617E-2
4.520306526E0,1.437606812E-1,8.699598163E-2,2.130603790E-2
4.525306526E0,1.366562843E-1,3.893915191E-2,5.033779144E-2
4.530306526E0,1.158390045E-1,8.078597486E-3,6.557464600E-2
4.535306526E0,8.100938797E-2,3.553457558E-3,5.936241150E-2
4.540306526E0,5.141496658E-2,1.920370758E-2,5.045318604E-2
4.545306526E0,3.871965408E-2,7.809109986E-3,3.485298157E-2
4.550306526E0,5.370140076E-2,7.907144725E-3,2.050209045E-2
4.555306526E0,8.018875122E-2,2.558082342E-3,-1.872920990E-2
4.560306526E0,1.114645004E-1,-2.661217749E-2,-4.684925079E-2
4.565306526E0,1.502037048E-1,-6.296826899E-2,-6.107234955E-2
4.570306526E0,1.521720886E-1,-1.074474454E-1,-5.323505402E-2
4.575306526E0,1.602711678E-1,-1.589045972E-1,-1.450252533E-2
4.580306526E0,1.370477676E-1,-2.101184875E-1,6.883621216E-3
4.585306526E0,1.101088524E-1,-2.318053246E-1,5.480670929E-2
4.590306526E0,8.042240143E-2,-2.163508981E-1,3.476047516E-2
4.595306526E0,5.592298508E-2,-2.042067647E-1,4.606246948E-3
4.600306526E0,1.234197617E-2,-2.010720372E-1,-1.227569580E-2
4.605306526E0,-2.055025101E-2,-1.824182272E-1,-2.192592621E-2
4.610306526E0,-3.034496307E-2,-1.879320741E-1,-2.556610107E-2
4.615306526E0,-4.449319839E-2,-1.810425520E-1,-1.731395721E-2
4.620306526E0,-4.027843475E-2,-1.968521625E-1,8.044242859E-3
4.625306526E0,-4.786443710E-2,-2.198591828E-1,1.832008362E-2
4.630306526E0,-3.948163986E-2,-2.179708481E-1,2.105522156E-2
4.635306526E0,-5.178308487E-2,-2.063393593E-1,-5.884170532E-3
4.640306526E0,-6.886863708E-2,-1.658933163E-1,-1.713085175E-2
4.645306526E0,-7.029056549E-2,-1.098281443E-1,-3.410053253E-2
4.650306526E0,-5.466556549E-2,-7.768032700E-2,-5.642223358E-2
4.655306526E0,-3.766536713E-2,-5.050459504E-2,-4.997634888E-2
4.660306526E0,-1.147890091E-2,-3.776512668E-2,-4.458904266E-2
4.665306526E0,4.212856293E-3,-3.463814408E-2,-4.553794861E-3
4.670306526E0,-7.719516754E-3,-5.437284708E-2,5.180644989E-2
4.675306526E0,-9.526252747E-3,-6.406427920E-2,8.468723297E-2
4.680306526E0,-3.314971924E-3,-6.084036827E-2,8.055210114E-2
4.685306526E0,-7.955551147E-3,-4.628946260E-2,4.563236237E-2
4.690306526E0,-2.099514008E-2,-2.158936113E-2,-4.024505615E-3
4.695306526E0,-1.799917221E-2,2.127545699E-2,-5.392837524E-2
4.700306526E0,-6.699562073E-3,1.895919815E-2,-6.439018250E-2
4.705306526E0,2.830505371E-2,-9.835984558E-3,-8.092117310E-2
4.710306526E0,5.758047104E-2,-4.282258824E-2,-5.652523041E-2
4.715306526E0,7.671785355E-2,-5.110519007E-2,-1.412010193E-2
4.720306526E0,8.202123642E-2,-7.098250091E-2,2.802848816E-2
4.725306526E0,8.232498169E-2,-7.708104700E-2,7.109832764E-2
4.730306526E0,1.080203056E-1,-9.281167388E-2,7.266807556E-2
4.735306526E0,1.283140182E-1,-1.209399104E-1,7.354164124E-2
4.740306526E0,1.380519867E-1,-1.504065692E-1,3.882217407E-2
4.745306526E0,1.176686287E-1,-1.553471386E-1,3.377532959E-2
4.750306526E0,7.361841202E-2,-1.547836363E-1,2.685546875E-2
4.755306526E0,3.246307373E-3,-1.462784410E-1,1.545524597E-2
4.760306526E0,-6.509542465E-2,-1.028970256E-1,-1.524734497E-2
4.765306526E0,-1.275300980E-1,-6.687205285E-2,-5.459403992E-2
4.770306526E0,-1.706910133E-1,-1.263106614E-2,-9.237194061E-2
4.775306526E0,-2.006554604E-1,4.288825393E-2,-1.247186661E-1
4.780306526E0,-1.993961334E-1,9.098771214E-2,-1.383733749E-1
4.785306526E0,-1.960024834E-1,1.393341720E-1,-1.155815125E-1
4.790306526E0,-1.775541306E-1,1.632020772E-1,-8.156299591E-2
4.795306526E0,-1.345524788E-1,2.028548717E-1,-2.546310425E-2
4.800306526E0,-8.392333984E-2,2.308689058E-1,1.237678528E-2
4.805306526E0,-1.782798767E-2,2.786668837E-1,5.096149445E-2
4.810306526E0,2.660799026E-2,2.914936841E-1,7.897281647E-2
4.815306526E0,3.497028351E-2,3.280590177E-1,1.073131561E-1
4.820306526E0,6.360101700E-2,3.333507776E-1,1.055421829E-1
4.825306526E0,8.142805099E-2,3.033140302E-1,9.025478363E-2
4.830306526E0,7.391977310E-2,2.876357734E-1,7.819175720E-2
4.835306526E0,7.559776306E-2,2.601562440E-1,7.878398895E-2
4.840306526E0,5.296182632E-2,2.200044096E-1,5.456924438E-2
4.845306526E0,4.502773285E-3,1.889666170E-1,2.759552002E-2
4.850306526E0,-3.490877151E-2,1.660687923E-1,-1.507186890E-2
4.855306526E0,-5.910062790E-2,1.631140560E-1,-3.993129730E-2
4.860306526E0,-6.102561951E-2,1.609981060E-1,-6.299686432E-2
4.865306526E0,-5.123710632E-2,1.579045951E-1,-1.084833145E-1
4.870306526E0,-3.078699112E-2,1.439881772E-1,-1.288681030E-1
4.875306526E0,-8.919239044E-3,1.231012419E-1,-1.152229309E-1
4.880306526E0,1.322460175E-2,8.498920500E-2,-7.226181030E-2
4.885306526E0,2.932310104E-2,3.610588610E-2,-6.324768066E-3
4.890306526E0,6.231832504E-2,-1.497741416E-2,7.227420807E-2
4.895306526E0,9.651660919E-2,-6.046281382E-2,9.200096130E-2
4.900306526E0,1.097660065E-1,-1.074833870E-1,8.214759827E-2
4.905306526E0,9.171152115E-2,-1.484762877E-1,4.730987549E-2
4.910306526E0,3.167104721E-2,-1.763044298E-1,5.147075653E-2
4.915306526E0,-5.181741714E-2,-1.771041453E-1,5.731582642E-2
4.920306526E0,-1.281814575E-1,-1.602711976E-1,4.628658295E-2
4.925306526E0,-1.624236107E-1,-1.528519690E-1,-2.737045288E-3
4.930306526E0,-1.725215912E-1,-1.463084668E-1,-5.367946625E-2
4.935306526E0,-1.736516953E-1,-1.284194738E-1,-9.312057495E-2
4.940306526E0,-1.763796806E-1,-9.728396684E-2,-1.094341278E-1
4.945306526E0,-1.644539833E-1,-8.067010343E-2,-1.092700958E-1
4.950306526E0,-1.528573036E-1,-4.031489044E-2,-8.238220215E-2
4.955306526E0,-1.076169014E-1,-3.924068809E-2,-5.401992798E-2
4.960306526E0,-5.133628845E-2,-2.453321964E-2,-1.752090454E-2
4.965306526E0,-5.512714386E-3,2.247006819E-2,1.526260376E-2
4.970306526E0,5.396795273E-2,4.756683484E-2,3.554439545E-2
4.975306526E0,9.011507034E-2,5.969925225E-2,5.221366882E-2
4.980306526E0,1.141691208E-1,8.193989098E-2,7.054233551E-2
4.985306526E0,1.140322685E-1,1.115339026E-1,7.921218872E-2
4.990306526E0,9.412288666E-2,1.461210996E-1,7.961463928E-2
4.995306526E0,7.228899002E-2,1.813732386E-1,6.990528107E-2
5.000306526E0,7.502317429E-2,2.157743126E-1,5.265998840E-2
5.005306526E0,1.043739319E-1,2.343870401E-1,1.594543457E-2
5.010306526E0,1.230831146E-1,2.319579720E-1,-1.799201965E-2
5.015306526E0,1.631999016E-1,2.204097956E-1,-3.770351410E-2
5.020306526E0,1.603927612E-1,1.972107887E-1,-4.515075684E-2
5.025306526E0,1.564493179E-1,1.778111458E-1,-3.359127045E-2
5.030306526E0,1.474289894E-1,1.290908903E-1,-1.187515259E-2
5.035306526E0,1.313996315E-1,8.037665486E-2,1.222991943E-2
5.040306526E0,1.166496277E-1,2.507301420E-2,1.701068878E-2
5.045306526E0,8.939599991E-2,-3.222772479E-2,2.159309387E-2
5.050306526E0,5.147600174E-2,-8.235199749E-2,6.403923035E-3
5.055306526E0,1.014709473E-3,-1.318310946E-1,6.108283997E-3
5.060306526E0,-5.797624588E-2,-1.571685374E-1,-1.089096069E-3
5.065306526E0,-1.101527214E-1,-1.906244606E-1,2.287864685E-3
5.070306526E0,-1.659536362E-1,-2.009594142E-1,-1.909255981E-3
5.075306526E0,-1.842956543E-1,-1.821540296E-1,-7.739067078E-3
5.080306526E0,-2.134256363E-1,-1.766757816E-1,-2.176380157E-2
5.085306526E0,-2.408394814E-1,-1.432198286E-1,-2.737903595E-2
5.090306526E0,-2.391123772E-1,-1.214966550E-1,-3.571414948E-2
5.095306526E0,-2.179269791E-1,-9.537796676E-2,-3.859043121E-2
5.100306526E0,-1.793169975E-1,-9.172091633E-2,-4.063034058E-2
5.105306526E0,-1.385645866E-1,-8.670953661E-2,-2.960491180E-2
5.110306526E0,-8.081197739E-2,-5.934456736E-2,8.290290833E-3
5.115306526E0,-4.223871231E-2,-5.477075279E-2,3.121757507E-2
5.120306526E0,6.549358368E-3,-4.183632135E-2,3.138446808E-2
5.125306526E0,4.088354111E-2,-4.717298597E-2,3.427696228E-2
5.130306526E0,5.156850815E-2,-6.591909379E-2,3.153705597E-2
5.135306526E0,4.943418503E-2,-7.211337239E-2,2.060890198E-3
5.140306526E0,3.578138351E-2,-8.489221334E-2,5.088806152E-3
5.145306526E0,1.215696335E-2,-8.685977012E-2,-1.844882965E-2
5.150306526E0,6.690979004E-3,-7.788436860E-2,-3.167915344E-2
5.155306526E0,-1.180601120E-2,-5.430389941E-2,-6.510353088E-2
5.160306526E0,-5.139350891E-3,-5.070346966E-2,-6.847095490E-2
5.165306526E0,1.615238190E-2,-6.290052831E-2,-5.847358704E-2
5.170306526E0,4.542303085E-2,-7.680416852E-2,-3.761291504E-2
5.175306526E0,6.861972809E-2,-7.437375933E-2,-2.920913696E-2
5.180306526E0,9.544563293E-2,-5.315752327E-2,1.136779785E-2
5.185306526E0,1.287527084E-1,1.381825097E-2,3.699684143E-2
5.190306526E0,1.606473923E-1,6.656868756E-2,3.873729706E-2
5.195306526E0,1.854920387E-1,9.315000474E-2,2.284049988E-2
5.200306526E0,2.053112984E-1,1.112555787E-1,1.905441284E-3
5.205306526E0,1.923241615E-1,1.177217513E-1,-1.963901520E-2
5.210306526E0,1.722493172E-1,1.135230362E-1,-1.106548309E-2
5.215306526E0,1.553134918E-1,1.059600264E-1,1.256465912E-2
5.220306526E0,1.277208328E-1,9.440644830E-2,4.751014709E-2
5.225306526E0,1.152029037E-1,6.438611448E-2,7.935714722E-2
5.230306526E0,1.131777763E-1,5.518988520E-2,8.716392517E-2
5.235306526E0,1.090650558E-1,4.043931514E-2,5.856609344E-2
5.240306526E0,9.249830246E-2,2.994192392E-2,3.272438049E-2
5.245306526E0,6.622409821E-2,1.392684598E-2,5.963325500E-3
5.250306526E0,3.396892548E-2,-1.557457261E-2,-3.614807129E-2
5.255306526E0,1.019048691E-2,-4.626030475E-2,-4.836082458E-2
5.260306526E0,-1.272916794E-2,-5.271045491E-2,-3.549766541E-2
5.265306526E0,-4.440498352E-2,-5.150755495E-2,-5.648612976E-3
5.270306526E0,-6.458520889E-2,-4.861732945E-2,3.014564514E-3
5.275306526E0,-6.500339508E-2,-5.977804586E-2,-1.763439178E-2
5.280306526E0,-3.888368607E-2,-7.232463360E-2,-3.473472595E-2
5.285306526E0,4.183769226E-3,-1.139999181E-1,-5.465412140E-2
5.290306526E0,3.946876526E-2,-1.630599350E-1,-5.784320831E-2
5.295306526E0,4.536294937E-2,-2.027408183E-1,-2.240657806E-2
5.300306526E0,4.962015152E-2,-2.237113267E-1,1.300907135E-2
5.305306526E0,3.630590439E-2,-2.105755806E-1,6.319332123E-2
5.310306526E0,1.731967926E-2,-1.976870745E-1,8.219432831E-2
5.315306526E0,-7.634162903E-3,-1.963751167E-1,5.600929260E-2
5.320306526E0,-1.302051544E-2,-1.625598222E-1,-1.214790344E-2
5.325306526E0,-2.853536606E-2,-1.397475004E-1,-5.578804016E-2
5.330306526E0,-3.542184830E-2,-1.059715003E-1,-9.011077881E-2
5.335306526E0,-4.183912277E-2,-6.286839396E-2,-6.001758575E-2
5.340306526E0,-3.182983398E-2,-2.130459622E-2,-3.553390503E-3
5.345306526E0,-8.929252625E-3,1.657107100E-2,5.048751831E-2
5.350306526E0,1.165199280E-2,6.542955339E-2,7.017135620E-2
5.355306526E0,3.214168549E-2,1.140747666E-1,7.298660278E-2
5.360306526E0,4.927110672E-2,1.586096585E-1,5.563449860E-2
5.365306526E0,6.049680710E-2,1.846908629E-1,2.580165863E-2
5.370306526E0,6.233263016E-2,1.908608377E-1,-7.601737976E-3
5.375306526E0,5.595684052E-2,2.010060847E-1,-1.904487610E-3
5.380306526E0,4.543542862E-2,1.936112046E-1,1.643753052E-2
5.385306526E0,3.063488007E-2,1.905634552E-1,1.362609863E-2
5.390306526E0,1.156854630E-2,1.868509054E-1,3.259849548E-2
5.395306526E0,1.457595825E-2,1.793049574E-1,1.827621460E-2
5.400306526E0,1.285409927E-2,1.663095951E-1,-4.588127136E-3
5.405306526E0,1.111984253E-3,1.482829899E-1,-2.927780151E-2
5.410306526E0,-1.098251343E-2,1.431047916E-1,-1.673793793E-2
5.415306526E0,-2.280521393E-2,1.368007213E-1,9.288787842E-4
5.420306526E0,-2.013587952E-2,1.176991612E-1,2.338027954E-2
5.425306526E0,-7.663726807E-3,8.795694262E-2,3.222846985E-2
5.430306526E0,1.024723053E-3,7.430449128E-2,2.684020996E-2
5.435306526E0,-1.511716843E-2,6.787015498E-2,1.760578156E-2
5.440306526E0,-3.268814087E-2,6.233917922E-2,2.202987671E-4
5.445306526E0,-4.982566833E-2,7.547070831E-2,1.096725464E-3
5.450306526E0,-7.147121429E-2,1.138082892E-1,-7.404327393E-3
5.455306526E0,-8.946943283E-2,1.297318935E-1,-2.369213104E-2
5.460306526E0,-8.857584000E-2,1.673359424E-1,-2.277374268E-2
5.465306526E0,-9.627008438E-2,1.976080537E-1,-6.161975861E-2
5.470306526E0,-8.666372299E-2,1.736158729E-1,-6.069278717E-2
5.475306526E0,-7.576704025E-2,1.292621195E-1,-2.391433716E-2
5.480306526E0,-6.850767136E-2,6.651165336E-2,1.181697845E-2
5.485306526E0,-5.683517456E-2,2.163830400E-2,2.258968353E-2
5.490306526E0,-5.151271820E-2,-1.232356578E-2,4.607391357E-2
5.495306526E0,-5.259799957E-2,-4.153421894E-2,4.028034210E-2
5.500306526E0,-5.778026581E-2,-3.538718820E-2,2.232360840E-2
5.505306526E0,-5.171966553E-2,-8.210450411E-3,8.095741272E-3
5.510306526E0,-3.437423706E-2,4.321120679E-3,-1.517200470E-2
5.515306526E0,5.418777466E-3,6.765663624E-3,-3.304481506E-2
5.520306526E0,1.176738739E-2,-1.313754916E-2,-3.992938995E-2
5.525306526E0,4.891872406E-2,-4.512353241E-2,-2.856636047E-2
5.530306526E0,8.762216568E-2,-8.957409859E-2,8.879661560E-3
5.535306526E0,1.044063568E-1,-1.684080213E-1,5.720043182E-2
5.540306526E0,1.037659645E-1,-2.289633155E-1,6.673145294E-2
5.545306526E0,1.239061356E-1,-2.898374200E-1,7.179260254E-2
5.550306526E0,7.045173645E-2,-3.181741238E-1,3.818035126E-2
5.555306526E0,2.134323120E-2,-3.378640413E-1,1.770782471E-2
5.560306526E0,-4.160499573E-2,-3.461639881E-1,-1.442718506E-2
5.565306526E0,-9.774065018E-2,-3.263073862E-1,-5.640220642E-2
5.570306526E0,-1.390337944E-1,-3.113673925E-1,-8.798885345E-2
5.575306526E0,-1.625952721E-1,-2.874432504E-1,-9.980869293E-2
5.580306526E0,-1.634469032E-1,-2.480792254E-1,-1.165904999E-1
5.585306526E0,-1.493201256E-1,-2.004166394E-1,-1.222600937E-1
5.590306526E0,-1.082038879E-1,-1.636480391E-1,-1.000728607E-1
5.595306526E0,-7.065916061E-2,-1.414135098E-1,-8.847236633E-2
5.600306526E0,-3.578233719E-2,-1.167736501E-1,-6.058979034E-2
5.605306526E0,-1.382398605E-2,-7.718339562E-2,-3.424358368E-2
5.610306526E0,-1.371383667E-3,-6.015463173E-2,1.198577881E-2
5.615306526E0,6.029129028E-3,-5.402363092E-2,5.116176605E-2
5.620306526E0,2.442979813E-2,-3.553026170E-2,5.074977875E-2
5.625306526E0,3.494834900E-2,-8.177876472E-3,5.204772949E-2
5.630306526E0,2.492141724E-2,2.584307641E-2,1.822948456E-2
5.635306526E0,1.503467560E-3,4.215352237E-2,1.571559906E-2
5.640306526E0,-3.416585922E-2,7.456744462E-2,6.766319275E-3
5.645306526E0,-6.788444519E-2,8.528009057E-2,2.142810822E-2
5.650306526E0,-8.198070526E-2,9.739495069E-2,4.386901855E-3
5.655306526E0,-8.621025085E-2,1.306864917E-1,-9.696006775E-3
5.660306526E0,-8.370733261E-2,1.552990824E-1,-2.923870087E-2
5.665306526E0,-6.845998764E-2,1.695529222E-1,-5.636978149E-2
5.670306526E0,-6.458425522E-2,2.021269947E-1,-5.142021179E-2
5.675306526E0,-4.359769821E-2,2.240025252E-1,-3.100013733E-2
5.680306526E0,-7.515430450E-3,2.501724064E-1,-1.089859009E-2
5.685306526E0,3.189706802E-2,2.719780803E-1,1.403522491E-2
5.690306526E0,9.045600891E-2,2.688975334E-1,3.023052216E-2
5.695306526E0,1.435914040E-1,2.585502863E-1,1.224327087E-2
5.700306526E0,1.987304688E-1,2.239994258E-1,4.940986633E-2
5.705306526E0,2.008657455E-1,1.903929561E-1,6.140327454E-2
5.710306526E0,1.897811890E-1,1.660695374E-1,8.327865601E-2
5.715306526E0,1.649312973E-1,1.379970908E-1,8.139896393E-2
5.720306526E0,1.320762634E-1,1.048096120E-1,7.128047943E-2
5.725306526E0,1.185150146E-1,6.356714666E-2,4.232883453E-2
5.730306526E0,8.795452118E-2,4.181452096E-2,2.860164642E-2
5.735306526E0,6.038951874E-2,-4.073545337E-3,6.055831909E-3
5.740306526E0,2.430152893E-2,-4.792723805E-2,2.318382263E-3
5.745306526E0,-1.336288452E-2,-9.983955324E-2,1.512145996E-2
5.750306526E0,-5.075025558E-2,-1.483729780E-1,4.463672638E-2
5.755306526E0,-6.766605377E-2,-1.832619905E-1,5.086135864E-2
5.760306526E0,-6.920337677E-2,-2.179787904E-1,3.057003021E-2
5.765306526E0,-5.487966537E-2,-2.493907511E-1,-1.082420349E-2
5.770306526E0,-6.348943710E-2,-2.799359262E-1,-4.275226593E-2
5.775306526E0,-8.364582062E-2,-3.033138812E-1,-7.077121735E-2
5.780306526E0,-9.627246857E-2,-2.920252681E-1,-5.363655090E-2
5.785306526E0,-1.157031059E-1,-2.834904492E-1,-2.259635925E-2
5.790306526E0,-1.029543877E-1,-2.735248506E-1,-4.987716675E-3
5.795306526E0,-6.318569183E-2,-2.757968605E-1,-1.636886597E-2
5.800306526E0,-4.450750351E-2,-2.461421341E-1,-3.578758240E-2
5.805306526E0,-2.649927139E-2,-1.899291128E-1,-3.423786163E-2
5.810306526E0,-2.214431763E-2,-1.274132282E-1,-2.236175537E-2
5.815306526E0,-3.136348724E-2,-5.978745222E-2,-1.180171967E-2
5.820306526E0,-1.807975769E-2,1.437921450E-2,2.198219299E-2
5.825306526E0,1.791381836E-2,6.889829040E-2,7.802009583E-3
5.830306526E0,7.481145859E-2,1.046443582E-1,-4.201889038E-3
5.835306526E0,1.418190002E-1,1.371963620E-1,-1.462650299E-2
5.840306526E0,1.727867126E-1,1.580748409E-1,-2.318191528E-2
5.845306526E0,1.925477982E-1,1.533790976E-1,9.243011475E-3
5.850306526E0,1.820321083E-1,1.504793465E-1,4.298400879E-2
5.855306526E0,1.636791229E-1,1.480478942E-1,6.772613525E-2
5.860306526E0,1.461725235E-1,1.368625313E-1,6.954956055E-2
5.865306526E0,1.040501595E-1,1.422448456E-1,6.816101074E-2
5.870306526E0,7.470893860E-2,1.456214190E-1,5.267047882E-2
5.875306526E0,3.830862045E-2,1.535335928E-1,4.289054871E-2
5.880306526E0,2.234697342E-2,1.701159924E-1,5.365371704E-3
5.885306526E0,-3.348350525E-3,1.658132672E-1,-3.536510468E-2
5.890306526E0,-3.500699997E-2,1.641373038E-1,-5.899238586E-2
5.895306526E0,-7.194185257E-2,1.581458747E-1,-3.335571289E-2
5.900306526E0,-9.168481827E-2,1.581317186E-1,-7.225990295E-3
5.905306526E0,-8.538818359E-2,1.399225593E-1,1.015281677E-2
5.910306526E0,-7.955598831E-2,1.074656099E-1,1.329040527E-2
5.915306526E0,-5.072021484E-2,8.391845971E-2,-5.149841309E-3
5.920306526E0,-4.121303558E-2,4.441360384E-2,6.818771362E-4
5.925306526E0,-6.350183487E-2,6.554126740E-3,2.527236938E-4
5.930306526E0,-9.498596191E-2,-3.065241687E-2,1.508235931E-2
5.935306526E0,-1.370368004E-1,-6.049664319E-2,3.254795074E-2
5.940306526E0,-1.779694557E-1,-1.005669534E-1,1.815128326E-2
5.945306526E0,-2.059926987E-1,-1.215332448E-1,8.104324341E-3
5.950306526E0,-2.389779091E-1,-1.434184462E-1,-5.372047424E-3
5.955306526E0,-2.532029152E-1,-1.411644518E-1,-2.135467529E-2
5.960306526E0,-2.485585213E-1,-1.679677069E-1,-6.162357330E-2
5.965306526E0,-2.395334244E-1,-1.856599748E-1,-8.992099762E-2
5.970306526E0,-2.128686905E-1,-2.047428340E-1,-1.179103851E-1
5.975306526E0,-1.994457245E-1,-2.176794410E-1,-1.066694260E-1
5.980306526E0,-1.666283607E-1,-2.190960646E-1,-8.483409882E-2
5.985306526E0,-1.298208237E-1,-2.249461561E-1,-5.387878418E-2
5.990306526E0,-5.654478073E-2,-2.331056595E-1,-3.244876862E-2
5.995306526E0,3.437805176E-2,-2.322513908E-1,-2.407836914E-2
6.000306526E0,1.008052826E-1,-2.342663258E-1,-1.711940765E-2
6.005306526E0,1.696324348E-1,-2.563983202E-1,1.249885559E-2
6.010306526E0,2.482304573E-1,-2.858142257E-1,3.590011597E-2
6.015306526E0,3.090829849E-1,-2.939641476E-1,6.629371643E-2
6.020306526E0,3.472065926E-1,-2.949292958E-1,8.285045624E-2
6.025306526E0,3.708610535E-1,-2.785527110E-1,9.299659729E-2
6.030306526E0,3.916730881E-1,-2.305852920E-1,8.174705505E-2
6.035306526E0,4.052214622E-1,-1.840790063E-1,2.778244019E-2
6.040306526E0,4.162573814E-1,-1.283325255E-1,-5.759239197E-3
6.045306526E0,3.968415260E-1,-6.039349735E-2,-5.263423920E-2
6.050306526E0,3.641004562E-1,-9.208156727E-3,-3.577804565E-2
6.055306526E0,3.258776665E-1,2.322049439E-2,-9.641647339E-3
6.060306526E0,2.912774086E-1,6.348478049E-2,1.403617859E-2
6.065306526E0,2.540860176E-1,1.080865636E-1,3.250885010E-2
6.070306526E0,2.188210487E-1,1.337567568E-1,2.721500397E-2
6.075306526E0,1.798400879E-1,1.756224930E-1,2.033424377E-2
6.080306526E0,1.288375854E-1,2.172603309E-1,1.391792297E-2
6.085306526E0,9.509086609E-2,2.413087338E-1,-1.242446899E-2
6.090306526E0,4.784107208E-2,2.714725733E-1,-1.101303101E-2
6.095306526E0,1.636028290E-3,2.939147651E-1,-1.488685608E-3
6.100306526E0,-3.615760803E-2,3.054272234E-1,9.276390076E-3
6.105306526E0,-6.076431274E-2,3.140192330E-1,3.563308716E-2
6.110306526E0,-7.553958893E-2,3.233758211E-1,1.737785339E-2
6.115306526E0,-9.068965912E-2,3.370333910E-1,-2.436637878E-3
6.120306526E0,-1.089019775E-1,3.237587214E-1,-1.053810120E-2
6.125306526E0,-1.344175339E-1,3.384658396E-1,-2.675056458E-3
6.130306526E0,-1.712727547E-1,3.470724523E-1,4.358291626E-3
6.135306526E0,-1.825542450E-1,3.377471566E-1,3.347206116E-2
6.140306526E0,-1.782732010E-1,3.105906844E-1,3.968334198E-2
6.145306526E0,-1.442275047E-1,2.691100240E-1,2.541065216E-2
6.150306526E0,-1.069607735E-1,2.272254229E-1,1.309776306E-2
6.155306526E0,-6.145572662E-2,1.843167990E-1,1.661300659E-2
6.160306526E0,-4.341983795E-2,1.454900503E-1,2.528572083E-2
6.165306526E0,-1.552391052E-2,1.257489622E-1,4.024505615E-2
6.170306526E0,1.217031479E-2,8.857052028E-2,5.661296844E-2
6.175306526E0,3.531455994E-2,4.715660214E-2,5.144977570E-2
6.180306526E0,6.563949585E-2,1.760942116E-2,3.819942474E-2
6.185306526E0,8.630800247E-2,1.072522625E-2,3.980541229E-2
6.190306526E0,1.005077362E-1,-6.627026945E-3,1.129531860E-2
6.195306526E0,1.189541817E-1,-1.680907235E-2,-1.384544373E-2
6.200306526E0,1.225032806E-1,-5.843925849E-2,-3.618335724E-2
6.205306526E0,1.245117188E-1,-6.341733783E-2,-3.239727020E-2
6.210306526E0,1.245708466E-1,-6.856959313E-2,-1.482295990E-2
6.215306526E0,1.191186905E-1,-1.010764092E-1,3.503799438E-3
6.220306526E0,1.296634674E-1,-1.133407354E-1,2.741909027E-2
6.225306526E0,1.376008987E-1,-1.312103570E-1,2.099895477E-2
6.230306526E0,1.519637108E-1,-1.450416744E-1,1.099395752E-2
6.235306526E0,1.421914101E-1,-1.419796199E-1,1.620197296E-2
6.240306526E0,1.349921227E-1,-1.612985581E-1,1.559448242E-2
6.245306526E0,9.168577194E-2,-1.644659340E-1,2.394962311E-2
6.250306526E0,4.513168335E-2,-1.646933556E-1,3.398227692E-2
6.255306526E0,7.053375244E-3,-1.670098007E-1,2.885341644E-2
6.260306526E0,-4.734897614E-2,-1.625280082E-1,2.640819550E-2
6.265306526E0,-9.167051315E-2,-1.453766525E-1,8.525848389E-4
6.270306526E0,-1.413359642E-1,-1.436904967E-1,-2.316474915E-2
6.275306526E0,-1.872458458E-1,-1.435927451E-1,-4.601955414E-2
6.280306526E0,-2.291393280E-1,-1.322352737E-1,-8.323955536E-2
6.285306526E0,-2.743964195E-1,-1.190560162E-1,-8.406066895E-2
6.290306526E0,-3.209872246E-1,-1.003991067E-1,-8.703422546E-2
6.295306526E0,-3.502163887E-1,-1.044803709E-1,-7.510757446E-2
6.300306526E0,-3.486862183E-1,-1.027118564E-1,-5.767250061E-2
6.305306526E0,-3.276543617E-1,-1.104083136E-1,-3.382110596E-2
6.310306526E0,-2.983093262E-1,-1.323951930E-1,-3.562831879E-2
6.315306526E0,-2.692947388E-1,-1.511199325E-1,-2.759933472E-3
6.320306526E0,-2.283854485E-1,-1.647587717E-1,3.672885895E-2
6.325306526E0,-1.863160133E-1,-1.324214041E-1,6.554031372E-2
6.330306526E0,-1.201820374E-1,-1.185388863E-1,6.873703003E-2
6.335306526E0,-5.773353577E-2,-1.042374596E-1,4.589176178E-2
6.340306526E0,1.433372498E-3,-9.696836770E-2,7.045745850E-3
6.345306526E0,4.548120499E-2,-9.384843707E-2,-1.338005066E-2
6.350306526E0,5.444860458E-2,-9.516820312E-2,-3.696537018E-2
6.355306526E0,6.219673157E-2,-1.024107188E-1,-3.042221069E-2
6.360306526E0,7.113885880E-2,-1.134309024E-1,-3.237247467E-2
6.365306526E0,7.771444321E-2,-1.335804611E-1,-3.009319305E-2
6.370306526E0,1.008691788E-1,-1.537477672E-1,-4.871368408E-2
6.375306526E0,1.280884743E-1,-1.872233152E-1,-3.836059570E-2
6.380306526E0,1.617870331E-1,-2.110237479E-1,-2.872467041E-2
6.385306526E0,1.933908463E-1,-2.357858717E-1,-2.590751648E-2
6.390306526E0,2.073268890E-1,-2.548198998E-1,-2.197265625E-2
6.395306526E0,2.327127457E-1,-2.535355985E-1,-6.219863892E-3
6.400306526E0,2.391281128E-1,-2.457191050E-1,7.801055908E-3
6.405306526E0,2.438778877E-1,-2.024877816E-1,4.195213318E-2
6.410306526E0,2.212758064E-1,-1.697933376E-1,3.069019318E-2
6.415306526E0,2.011418343E-1,-1.218338609E-1,2.572059631E-2
6.420306526E0,1.817688942E-1,-9.352744371E-2,1.707077026E-4
6.425306526E0,1.722712517E-1,-7.022838295E-2,-1.614856720E-2
6.430306526E0,1.414508820E-1,-4.889959842E-2,-3.274059296E-2
6.435306526E0,1.226015091E-1,-2.123828232E-2,-6.305694580E-3
6.440306526E0,9.496355057E-2,1.734692231E-2,1.530361176E-2
6.445306526E0,5.335664749E-2,4.077319801E-2,4.529190063E-2
6.450306526E0,2.573013306E-2,7.218298316E-2,2.591037750E-2
6.455306526E0,-5.852699280E-3,1.024700627E-1,1.242637634E-2
6.460306526E0,-4.990816116E-2,1.343719959E-1,-2.086257935E-2
6.465306526E0,-1.010065079E-1,1.742473692E-1,-3.092098236E-2
6.470306526E0,-1.347117424E-1,2.168116271E-1,-4.110050201E-2
6.475306526E0,-1.471438408E-1,2.441256046E-1,-1.995086670E-2
6.480306526E0,-1.383690834E-1,2.659124434E-1,-2.852535248E-2
6.485306526E0,-1.074833870E-1,2.741010189E-1,-1.669502258E-2
6.490306526E0,-8.174657822E-2,2.716896534E-1,6.356239319E-3
6.495306526E0,-4.715204239E-2,2.507632971E-1,3.957843781E-2
6.500306526E0,5.743503571E-3,2.227826864E-1,4.383659363E-2
6.505306526E0,3.827381134E-2,2.089669555E-1,4.042243958E-2
6.510306526E0,5.709934235E-2,1.980240345E-1,1.701259613E-2
6.515306526E0,6.877946854E-2,1.864844114E-1,1.343250275E-2
6.520306526E0,6.322479248E-2,1.721343845E-1,1.845741272E-2
6.525306526E0,4.212665558E-2,1.690844595E-1,2.302455902E-2
6.530306526E0,2.605819702E-2,1.683769077E-1,7.199287415E-3
6.535306526E0,1.326274872E-2,1.531277746E-1,-8.626937866E-3
6.540306526E0,8.041858673E-3,1.262694746E-1,5.722045898E-6
6.545306526E0,1.236248016E-2,1.040504053E-1,-1.260757446E-3
6.550306526E0,1.612758636E-2,9.862355888E-2,-6.555557251E-3
6.555306526E0,1.421022415E-2,7.195357978E-2,1.628303528E-2
6.560306526E0,1.516342163E-3,6.116782129E-2,3.176975250E-2
6.565306526E0,-1.069688797E-2,6.311813742E-2,5.020904541E-2
6.570306526E0,-9.265422821E-3,5.816724896E-2,5.459976196E-2
6.575306526E0,-3.359746933E-2,4.736386240E-2,4.558658600E-2
6.580306526E0,-3.496932983E-2,4.052021727E-2,3.223037720E-2
6.585306526E0,-4.777908325E-2,5.310687795E-2,1.102638245E-2
6.590306526E0,-4.814767838E-2,5.069771782E-2,2.140998840E-3
6.595306526E0,-4.902791977E-2,5.633985624E-2,-2.965927124E-4
6.600306526E0,-3.460359573E-2,6.051121652E-2,-1.208400726E-2
6.605306526E0,-4.549932480E-2,6.058342755E-2,-2.970886230E-2
6.610306526E0,-6.851577759E-2,7.507441193E-2,-3.800201416E-2
6.615306526E0,-7.958793640E-2,7.489708811E-2,-3.552627563E-2
6.620306526E0,-9.862899780E-2,6.057249755E-2,-4.598236084E-2
6.625306526E0,-9.221649170E-2,5.783392489E-2,-3.745746613E-2
6.630306526E0,-9.440994263E-2,4.702527821E-2,-3.293895721E-2
6.635306526E0,-7.337379456E-2,2.203360200E-2,-9.354591370E-3
6.640306526E0,-3.877449036E-2,8.485557511E-3,1.432037354E-2
6.645306526E0,-1.809930801E-2,-7.173269987E-3,3.094577789E-2
6.650306526E0,4.343986511E-4,-2.120518498E-2,4.826450348E-2
6.655306526E0,5.291461945E-3,-2.706192061E-2,4.648113251E-2
6.660306526E0,1.603889465E-2,-4.104474187E-2,5.261421204E-2
6.665306526E0,2.964162827E-2,-4.007229209E-2,2.039813995E-2
6.670306526E0,3.390884399E-2,-3.195872158E-2,1.999473572E-2
6.675306526E0,5.250167847E-2,-2.959373221E-2,-8.886337280E-3
6.680306526E0,5.651950836E-2,-2.371936664E-2,-7.339477539E-3
6.685306526E0,5.548381805E-2,-4.176875949E-2,-2.315330505E-2
6.690306526E0,5.972480774E-2,-6.836441904E-2,-1.485538483E-2
6.695306526E0,5.525112152E-2,-9.081918001E-2,-4.062652588E-3
6.700306526E0,5.570697784E-2,-1.116981879E-1,1.062679291E-2
6.705306526E0,6.080722809E-2,-1.382046789E-1,3.312015533E-2
6.710306526E0,6.879901886E-2,-1.427918673E-1,3.656673431E-2
6.715306526E0,6.569910049E-2,-1.522353590E-1,2.283763885E-2
6.720306526E0,7.656431198E-2,-1.500925571E-1,4.791259766E-3
6.725306526E0,6.342983246E-2,-1.495104432E-1,3.010749817E-3
6.730306526E0,4.512643814E-2,-1.254841834E-1,-1.236629486E-2
6.735306526E0,3.791332245E-2,-1.162846833E-1,-2.955150604E-2
6.740306526E0,2.291679382E-2,-9.521479160E-2,-3.355121613E-2
6.745306526E0,1.380777359E-2,-9.185817838E-2,-5.170440674E-2
6.750306526E0,9.798526764E-3,-8.930220455E-2,-5.318450928E-2
6.755306526E0,-1.719474792E-3,-7.973387092E-2,-3.122711182E-2
6.760306526E0,4.994392395E-3,-7.985167205E-2,-2.369880676E-2
6.765306526E0,-1.953363419E-2,-7.080045342E-2,-1.393890381E-2
6.770306526E0,-2.276372910E-2,-5.109619349E-2,-1.926422119E-2
6.775306526E0,-3.415250778E-2,-2.653196454E-2,-1.828479767E-2
6.780306526E0,-2.043104172E-2,-2.476895228E-3,-8.259773254E-3
6.785306526E0,-1.942825317E-2,7.303770632E-3,-1.758670807E-2
6.790306526E0,-1.718854904E-2,1.772516221E-2,-1.991176605E-2
6.795306526E0,-1.201391220E-2,3.001180105E-2,1.554489136E-3
6.800306526E0,-2.137660980E-2,3.919249028E-2,2.396583557E-2
6.805306526E0,-9.064197540E-3,5.136996508E-2,4.474449158E-2
6.810306526E0,1.189517975E-2,4.260202870E-2,4.930973053E-2
6.815306526E0,2.667188644E-2,2.227612212E-2,4.149627686E-2
6.820306526E0,2.321195602E-2,1.460969914E-2,7.257461548E-4
6.825306526E0,2.959728241E-3,1.758923754E-2,2.091407776E-2
6.830306526E0,-9.654045105E-3,3.188157454E-2,1.650524139E-2
6.835306526E0,-3.948926926E-2,4.141984880E-2,8.040428162E-3
6.840306526E0,-5.356121063E-2,4.387686774E-2,3.952026367E-3
6.845306526E0,-7.804441452E-2,5.274043605E-2,-1.576900482E-2
6.850306526E0,-1.079559326E-1,5.584234744E-2,-3.538513184E-2
6.855306526E0,-1.264038086E-1,5.581714958E-2,-3.449344635E-2
6.860306526E0,-1.370344162E-1,6.250426173E-2,-3.209781647E-2
6.865306526E0,-1.219735146E-1,5.143173784E-2,-2.190494537E-2
6.870306526E0,-9.511232376E-2,3.938020021E-2,-1.424503326E-2
6.875306526E0,-5.361223221E-2,1.576654427E-2,-1.924228668E-2
6.880306526E0,-2.216529846E-2,2.095285803E-3,-2.678775787E-2
6.885306526E0,4.523277283E-3,-8.640438318E-3,-1.572608948E-2
6.890306526E0,1.351022720E-2,-2.358679101E-2,7.677078247E-3
6.895306526E0,1.798105240E-2,-4.538953677E-2,3.719520569E-2
6.900306526E0,1.567316055E-2,-4.264293611E-2,5.436229706E-2
6.905306526E0,7.292747498E-3,-4.002010822E-2,6.509304047E-2
6.910306526E0,1.743698120E-2,-3.700691462E-2,7.022953033E-2
6.915306526E0,2.056980133E-2,-3.743490204E-2,5.878353119E-2
6.920306526E0,2.400493622E-2,-2.884459496E-2,3.845500946E-2
6.925306526E0,1.780319214E-2,-1.983418688E-2,1.009941101E-3
6.930306526E0,4.981517792E-3,-3.448317759E-3,-2.583885193E-2
6.935306526E0,-1.355934143E-2,6.213966291E-3,-3.006935120E-2
6.940306526E0,-1.078224182E-2,2.108949795E-2,-3.726482391E-2
6.945306526E0,-1.696109772E-2,8.376569487E-3,-4.974079132E-2
6.950306526E0,-1.862764359E-2,2.877559885E-2,-4.468631744E-2
6.955306526E0,-3.364086151E-3,4.647208005E-2,-3.588390350E-2
6.960306526E0,1.465320587E-3,6.241676211E-2,-3.162097931E-2
6.965306526E0,-1.222229004E-2,8.226713538E-2,-1.591587067E-2
6.970306526E0,-9.706020355E-3,8.384487778E-2,-8.319854736E-3
6.975306526E0,-1.910543442E-2,7.776649296E-2,2.397251129E-2
6.980306526E0,-5.475997925E-3,7.700185478E-2,3.006267548E-2
6.985306526E0,8.657932281E-3,7.203853875E-2,3.589916229E-2
6.990306526E0,3.793573380E-2,6.913869828E-2,3.791427612E-2
6.995306526E0,5.390977859E-2,7.520220429E-2,3.649330139E-2
7.000306526E0,7.075357437E-2,6.513231993E-2,2.361679077E-2
7.005306526E0,9.295225143E-2,7.347113639E-2,1.939678192E-2
7.010306526E0,1.232619286E-1,7.806197554E-2,-9.291648865E-3
7.015306526E0,1.383662224E-1,9.480406344E-2,-1.918792725E-3
7.020306526E0,1.578063965E-1,8.574798703E-2,8.989334106E-3
7.025306526E0,1.687879562E-1,7.094397396E-2,2.965545654E-2
7.030306526E0,1.829247475E-1,6.443580985E-2,5.884933472E-2
7.035306526E0,1.907949448E-1,4.937468097E-2,5.636596680E-2
7.040306526E0,1.872782707E-1,2.830413356E-2,6.268692017E-2
7.045306526E0,1.524262428E-1,2.457071841E-2,3.544044495E-2
7.050306526E0,1.113858223E-1,1.917997189E-2,2.469635010E-2
7.055306526E0,8.844661713E-2,1.829022169E-2,4.384040833E-3
7.060306526E0,3.689098358E-2,1.925730146E-2,-2.485084534E-2
7.065306526E0,4.607200623E-3,3.694352508E-2,-4.538536072E-2
7.070306526E0,-1.396465302E-2,5.816880986E-2,-7.717132568E-2
7.075306526E0,-1.889801025E-2,6.761669368E-2,-8.776569366E-2
7.080306526E0,-7.854461670E-3,8.036558330E-2,-9.319019318E-2
7.085306526E0,-9.656429291E-3,9.795125574E-2,-7.191276550E-2
7.090306526E0,1.800441742E-2,9.734281898E-2,-3.863525391E-2
7.095306526E0,4.636430740E-2,8.753118664E-2,-3.154754639E-3
7.100306526E0,6.643819809E-2,7.866804302E-2,1.371002197E-2
7.105306526E0,7.046175003E-2,6.891735643E-2,4.502868652E-2
7.110306526E0,5.287694931E-2,7.264948636E-2,3.485679626E-2
7.115306526E0,2.903270721E-2,7.070867717E-2,4.869365692E-2
7.120306526E0,3.315448761E-3,6.613957882E-2,4.409694672E-2
7.125306526E0,-1.681184769E-2,6.997437775E-2,1.521492004E-2
7.130306526E0,-3.420829773E-2,7.167869061E-2,-6.282806396E-3
7.135306526E0,-4.461526871E-2,6.091348082E-2,-3.662204742E-2
7.140306526E0,-5.810070038E-2,5.160020664E-2,-2.366638184E-2
7.145306526E0,-7.932138443E-2,4.720018059E-2,-1.911258698E-2
7.150306526E0,-7.955694199E-2,4.477484524E-2,-4.487991333E-3
7.155306526E0,-7.870531082E-2,3.626368195E-2,-5.329132080E-3
7.160306526E0,-7.255887985E-2,2.474096231E-2,-6.389617920E-4
7.165306526E0,-4.589891434E-2,6.955943536E-3,-1.006603241E-2
7.170306526E0,-4.055309296E-2,-2.091849782E-2,-4.261970520E-3
7.175306526E0,-5.730628967E-2,-4.135193676E-2,-6.367683411E-3
7.180306526E0,-7.036399841E-2,-5.517824367E-2,5.317687988E-3
7.185306526E0,-7.560920715E-2,-6.595514715E-2,2.545261383E-2
7.190306526E0,-9.189271927E-2,-6.694374979E-2,2.654743195E-2
7.195306526E0,-1.035447121E-1,-6.875634193E-2,2.210617065E-2
7.200306526E0,-1.185665131E-1,-7.223001122E-2,2.005290985E-2
7.205306526E0,-1.400928497E-1,-7.174368203E-2,-3.337860107E-4
7.210306526E0,-1.582589149E-1,-5.820833147E-2,9.279251099E-4
7.215306526E0,-1.696505547E-1,-6.299221516E-2,-8.027076721E-3
7.220306526E0,-1.642022133E-1,-3.421233222E-2,-6.339073181E-3
7.225306526E0,-1.592316628E-1,-3.364123404E-5,4.674911499E-3
7.230306526E0,-1.465578079E-1,1.939560845E-2,-3.917694092E-3
7.235306526E0,-1.282815933E-1,3.795378655E-2,-3.657341003E-3
7.240306526E0,-9.565591812E-2,4.109030962E-2,-1.052188873E-2
7.245306526E0,-4.731082916E-2,4.061878473E-2,-2.052974701E-2
7.250306526E0,-1.543283463E-2,4.791788757E-2,-2.430438995E-2
7.255306526E0,3.652572632E-3,4.078146070E-2,-1.815795898E-2
7.260306526E0,1.053810120E-2,4.242578149E-2,-7.299423218E-3
7.265306526E0,2.605056763E-2,4.038775712E-2,9.248733521E-3
7.270306526E0,3.180742264E-2,3.389659524E-2,1.906108856E-2
7.275306526E0,5.053520203E-2,3.139594570E-2,2.222347260E-2
7.280306526E0,6.295490265E-2,2.683044598E-2,1.655387878E-2
7.285306526E0,7.061624527E-2,2.222584188E-2,-2.227783203E-3
7.290306526E0,8.709764481E-2,-4.321297631E-3,-1.597404480E-3
7.295306526E0,1.114687920E-1,-2.682260610E-2,-9.714126587E-3
7.300306526E0,1.255388260E-1,-7.030537724E-2,2.182960510E-3
7.305306526E0,1.404438019E-1,-1.274165660E-1,1.771450043E-2
7.310306526E0,1.474123001E-1,-1.599465013E-1,1.361465454E-2
7.315306526E0,1.246824265E-1,-1.779679954E-1,2.180862427E-2
7.320306526E0,1.105723381E-1,-1.952596307E-1,1.380825043E-2
7.325306526E0,7.472038269E-2,-2.061299980E-1,-9.592056274E-3
7.330306526E0,4.063177109E-2,-1.992533207E-1,-1.960277557E-2
7.335306526E0,1.102018356E-2,-1.864071339E-1,-2.263164520E-2
7.340306526E0,-2.130842209E-2,-1.675770134E-1,-4.214096069E-2
7.345306526E0,-4.317569733E-2,-1.451399773E-1,-3.798198700E-2
7.350306526E0,-4.593753815E-2,-1.200916395E-1,-4.154968262E-2
7.355306526E0,-4.198884964E-2,-8.004389703E-2,-3.039646149E-2
7.360306526E0,-1.713800430E-2,-5.251756683E-2,-2.933692932E-2
7.365306526E0,1.101922989E-2,-1.949751377E-2,-1.887702942E-2
7.370306526E0,3.580474854E-2,5.947822705E-3,-1.043128967E-2
7.375306526E0,6.906080246E-2,7.654622197E-3,-2.269744873E-3
7.380306526E0,7.590532303E-2,-1.573357731E-3,1.240634918E-2
7.385306526E0,7.334280014E-2,1.540505141E-2,1.484680176E-2
7.390306526E0,5.833530426E-2,3.415336460E-2,3.445434570E-2
7.395306526E0,1.484537125E-2,3.472119197E-2,5.754375458E-2
7.400306526E0,-1.950883865E-2,4.344097152E-2,5.151271820E-2
7.405306526E0,-4.936218262E-2,6.188611686E-2,2.169990540E-2
7.410306526E0,-6.406879425E-2,7.149885595E-2,-1.142024994E-2
7.415306526E0,-7.411718369E-2,5.922149122E-2,-3.658103943E-2
7.420306526E0,-1.023468971E-1,4.311795533E-2,-1.928329468E-2
7.425306526E0,-1.142945290E-1,1.212945767E-2,-2.375984192E-2
7.430306526E0,-1.235432625E-1,-9.009689093E-4,-5.673408508E-3
7.435306526E0,-1.170597076E-1,-2.716925368E-2,-3.884315491E-3
7.440306526E0,-1.228146553E-1,-3.236769885E-2,-1.799869537E-2
7.445306526E0,-1.302561760E-1,-4.477592930E-2,-1.548099518E-2
7.450306526E0,-1.236133575E-1,-5.792993680E-2,-2.692222595E-2
7.455306526E0,-1.011981964E-1,-5.902408063E-2,-4.731750488E-2
7.460306526E0,-8.029890060E-2,-7.552038133E-2,-4.445457458E-2
7.465306526E0,-6.721258163E-2,-5.938555673E-2,-2.999973297E-2
7.470306526E0,-4.217338562E-2,-6.470401585E-2,1.084899902E-2
7.475306526E0,4.760265350E-3,-6.628596038E-2,3.580570221E-2
7.480306526E0,3.402042389E-2,-8.432245255E-2,6.924819946E-2
7.485306526E0,7.162332535E-2,-8.816522360E-2,8.231735229E-2
7.490306526E0,1.035609245E-1,-8.504861593E-2,8.800888062E-2
7.495306526E0,1.043233871E-1,-9.535160661E-2,6.213283539E-2
7.500306526E0,7.590627670E-2,-9.604006261E-2,1.888942719E-2
7.505306526E0,4.130935669E-2,-9.544067085E-2,1.239204407E-2
7.510306526E0,-1.407623291E-3,-7.094064355E-2,-1.314067841E-2
7.515306526E0,-4.147338867E-2,-7.338647544E-2,-2.848625183E-2
7.520306526E0,-7.075071335E-2,-6.106458232E-2,-3.284454346E-2
7.525306526E0,-9.237337112E-2,-4.533303529E-2,-4.718208313E-2
7.530306526E0,-9.420299530E-2,-3.868317977E-2,-2.228069305E-2
7.535306526E0,-9.656810760E-2,-3.484199569E-2,-1.097869873E-2
7.540306526E0,-8.188247681E-2,-1.271835342E-2,-5.159378052E-4
7.545306526E0,-7.439470291E-2,3.754954785E-3,2.075672150E-2
7.550306526E0,-4.595661163E-2,2.282438241E-2,5.170822144E-3
7.555306526E0,-1.733207703E-2,6.006804109E-2,1.212406158E-2
7.560306526E0,-3.574848175E-3,9.140887856E-2,8.125305176E-4
7.565306526E0,2.026844025E-2,1.153624505E-1,8.299827576E-3
7.570306526E0,3.520107269E-2,1.210032851E-1,1.444816589E-2
7.575306526E0,4.789543152E-2,1.243508160E-1,-9.265899658E-3
7.580306526E0,6.981754303E-2,1.030583084E-1,-1.986026764E-2
7.585306526E0,8.113861084E-2,9.180735052E-2,-2.515125275E-2
7.590306526E0,8.841609955E-2,6.783743203E-2,-2.567386627E-2
7.595306526E0,9.061956406E-2,3.662598133E-2,-8.431434631E-3
7.600306526E0,9.367084503E-2,1.564864255E-2,7.457733154E-3
7.605306526E0,7.796287537E-2,1.089291647E-2,1.058292389E-2
7.610306526E0,7.117652893E-2,2.831236459E-2,1.869964600E-2
7.615306526E0,3.165721893E-2,1.350072585E-2,3.228855133E-2
7.620306526E0,7.496833801E-3,2.991918847E-2,3.197669983E-2
7.625306526E0,1.094770432E-2,2.694623545E-2,4.742813110E-2
7.630306526E0,4.601001740E-3,2.414081618E-2,3.845691681E-2
7.635306526E0,-3.690242767E-3,2.639944106E-2,2.002716064E-5
7.640306526E0,4.609584808E-3,1.531878859E-2,-1.296234131E-2
7.645306526E0,-9.267807007E-3,2.329163998E-2,-1.106166840E-2
7.650306526E0,-2.516317368E-2,1.118694060E-2,-1.041603088E-2
7.655306526E0,-4.702091217E-2,-1.870634034E-2,-7.393836975E-3
7.660306526E0,-6.028985977E-2,-3.139763698E-2,-2.292251587E-2
7.665306526E0,-6.788349152E-2,-5.177622288E-2,-1.639747620E-2
7.670306526E0,-7.621526718E-2,-8.879722655E-2,-1.327037811E-2
7.675306526E0,-7.826328278E-2,-9.261045605E-2,-1.369762421E-2
7.680306526E0,-8.560466766E-2,-1.026242822E-1,-1.673984528E-2
7.685306526E0,-1.031470299E-1,-1.143569648E-1,-8.200645447E-3
7.690306526E0,-1.031780243E-1,-1.316212714E-1,-1.028823853E-2
7.695306526E0,-9.139204025E-2,-1.246752664E-1,-2.719116211E-2
7.700306526E0,-8.288288116E-2,-1.397079229E-1,-2.659034729E-2
7.705306526E0,-6.063604355E-2,-1.394624561E-1,-1.970100403E-2
7.710306526E0,-3.793430328E-2,-1.546152681E-1,-2.200889587E-2
7.715306526E0,-7.588863373E-3,-1.630356014E-1,-2.608489990E-2
7.720306526E0,1.100397110E-2,-1.747976243E-1,-2.664661407E-2
7.725306526E0,1.821327209E-2,-1.743778437E-1,-1.794528961E-2
7.730306526E0,3.892993927E-2,-1.888698637E-1,-2.924919128E-3
7.735306526E0,4.257869720E-2,-1.976771951E-1,-9.069442749E-4
7.740306526E0,4.458904266E-2,-2.015979290E-1,6.975173950E-3
7.745306526E0,5.736160278E-2,-2.170138359E-1,3.115653992E-3
7.750306526E0,6.069087982E-2,-2.339863777E-1,2.133369446E-3
7.755306526E0,4.345464706E-2,-2.423647344E-1,-3.904342651E-3
7.760306526E0,4.690408707E-2,-2.318123281E-1,1.923561096E-3
7.765306526E0,1.839685440E-2,-2.198266089E-1,-8.524894714E-3
7.770306526E0,-2.589225769E-4,-1.977159232E-1,1.038551331E-3
7.775306526E0,-1.669597626E-2,-1.573696733E-1,4.688262939E-3
7.780306526E0,1.102924347E-3,-1.183401793E-1,2.442264557E-2
7.785306526E0,1.714277267E-2,-9.350465238E-2,1.698970795E-2
7.790306526E0,2.161931992E-2,-5.053579062E-2,6.073951721E-3
7.795306526E0,3.076744080E-2,-1.176323742E-2,-1.031684875E-2
7.800306526E0,3.510713577E-2,3.353861347E-2,-9.325981140E-3
7.805306526E0,2.948427200E-2,7.644495368E-2,-2.114677429E-2
7.810306526E0,2.229738235E-2,1.176911294E-1,-6.875991821E-3
7.815306526E0,2.012825012E-2,1.503997445E-1,-6.753921509E-3
7.820306526E0,2.897214890E-2,1.764001846E-1,3.696441650E-3
7.825306526E0,2.897548676E-2,2.116276920E-1,-6.394386292E-3
7.830306526E0,1.798391342E-2,2.423508167E-1,2.388095856E-2
7.835306526E0,1.321935654E-2,2.640021145E-1,2.818202972E-2
7.840306526E0,2.313423157E-2,2.863815725E-1,2.371692657E-2
7.845306526E0,2.767705917E-2,3.049746156E-1,-2.832412720E-4
7.850306526E0,3.346776962E-2,3.184296489E-1,7.619857788E-4
7.855306526E0,1.675367355E-2,3.202571273E-1,4.320144653E-4
7.860306526E0,1.545667648E-2,3.179478645E-1,2.283191681E-2
7.865306526E0,1.307582855E-2,2.989057302E-1,3.089714050E-2
7.870306526E0,1.712560654E-2,2.973414958E-1,2.426910400E-2
7.875306526E0,1.000833511E-2,2.801690400E-1,2.406024933E-2
7.880306526E0,-1.715183258E-3,2.552798986E-1,2.931880951E-2
7.885306526E0,-1.493978500E-2,2.601990700E-1,1.601028442E-2
7.890306526E0,-2.762985229E-2,2.506981194E-1,1.479339600E-2
7.895306526E0,-4.770898819E-2,2.539975047E-1,1.284885406E-2
7.900306526E0,-5.363941193E-2,2.438713759E-1,-6.852149963E-3
7.905306526E0,-6.997108459E-2,2.242428958E-1,-3.398895264E-3
7.910306526E0,-8.206748962E-2,2.037715912E-1,-7.688522339E-3
7.915306526E0,-6.647300720E-2,1.782355607E-1,-1.286315918E-2
7.920306526E0,-6.086015701E-2,1.495546252E-1,-1.819038391E-2
7.925306526E0,-5.657768250E-2,1.065272093E-1,7.599830627E-3
7.930306526E0,-5.554914474E-2,7.371704280E-2,2.534198761E-2
7.935306526E0,-5.506420135E-2,6.260910630E-2,2.191257477E-2
7.940306526E0,-3.832387924E-2,3.970278054E-2,1.376152039E-2
7.945306526E0,-2.605152130E-2,2.957171947E-2,-5.741119385E-3
7.950306526E0,-8.624553680E-3,2.481550723E-2,-2.169609070E-2
7.955306526E0,-9.474754333E-4,1.626177505E-2,-4.715442657E-2
7.960306526E0,1.192522049E-2,2.943568677E-2,-4.980945587E-2
7.965306526E0,2.106761932E-2,2.311125770E-2,-3.100109100E-2
7.970306526E0,2.602100372E-2,1.060243696E-2,-1.201820374E-2
7.975306526E0,4.130363464E-2,1.155529544E-2,4.302024841E-3
7.980306526E0,5.334663391E-2,6.657630205E-3,4.241943359E-3
7.985306526E0,5.959701538E-2,5.451075733E-3,-6.695747375E-3
7.990306526E0,4.461956024E-2,-9.664539248E-3,-3.076553345E-3
7.995306526E0,2.294206619E-2,1.210730523E-2,-3.555297852E-3
8.000306526E0,-1.472759247E-2,3.701682389E-2,-1.384162903E-2
8.005306526E0,-6.483697891E-2,5.506740883E-2,-1.790904999E-2
8.010306526E0,-7.411003113E-2,9.734269977E-2,-4.723358154E-2
8.015306526E0,-9.387731552E-2,1.265905499E-1,-5.786037445E-2
8.020306526E0,-1.137371063E-1,1.645832807E-1,-4.963779449E-2
8.025306526E0,-9.727191925E-2,2.063480467E-1,-4.372787476E-2
8.030306526E0,-6.035852432E-2,2.300906032E-1,-3.411006927E-2
8.035306526E0,-1.487731934E-2,2.324271947E-1,-1.814460754E-2
8.040306526E0,4.247474670E-2,2.282432616E-1,-7.653236389E-3
8.045306526E0,1.110811234E-1,2.220141739E-1,1.670646667E-2
8.050306526E0,1.520633698E-1,2.032992989E-1,6.064414978E-2
8.055306526E0,1.851668358E-1,1.869492233E-1,1.214771271E-1
8.060306526E0,1.999077797E-1,1.749832183E-1,1.175203323E-1
8.065306526E0,1.867241859E-1,1.674410105E-1,1.192455292E-1
8.070306526E0,1.696481705E-1,1.580747217E-1,8.081531525E-2
8.075306526E0,1.258068085E-1,1.582162082E-1,4.431056976E-2
8.080306526E0,1.124248505E-1,1.429720670E-1,-5.016326904E-4
8.085306526E0,8.111953735E-2,1.236730590E-1,-1.211643219E-2
8.090306526E0,5.111360550E-2,1.006039679E-1,-2.532958984E-2
8.095306526E0,3.763866425E-2,7.023434341E-2,-2.830219269E-2
8.100306526E0,4.841423035E-2,3.243251145E-2,-9.183883667E-3
8.105306526E0,5.322551727E-2,4.101654515E-3,-2.219200134E-3
8.110306526E0,5.991888046E-2,-1.998751052E-2,1.679325104E-2
8.115306526E0,5.603218079E-2,-2.768254466E-2,1.447486877E-2
8.120306526E0,5.731201172E-2,-5.379399657E-2,1.098632812E-3
8.125306526E0,5.525493622E-2,-5.259927735E-2,-7.495880127E-4
8.130306526E0,2.096033096E-2,-5.835777521E-2,-1.381015778E-2
8.135306526E0,-1.507425308E-2,-7.109048963E-2,-7.589340210E-3
8.140306526E0,-4.831361771E-2,-7.872000337E-2,1.012134552E-2
8.145306526E0,-5.769491196E-2,-1.071228310E-1,9.514808655E-3
8.150306526E0,-8.217906952E-2,-1.283565164E-1,3.886222839E-3
8.155306526E0,-8.505392075E-2,-1.607639492E-1,-1.595211029E-2
8.160306526E0,-8.284187317E-2,-1.713628173E-1,-4.339694977E-2
8.165306526E0,-9.286212921E-2,-1.570281088E-1,-2.999591827E-2
8.170306526E0,-1.027665138E-1,-1.591196656E-1,-2.503395081E-2
8.175306526E0,-9.316444397E-2,-1.791520566E-1,-3.026866913E-2
8.180306526E0,-7.605648041E-2,-1.740236580E-1,-3.509998322E-2
8.185306526E0,-6.794214249E-2,-1.659029275E-1,-1.159858704E-2
8.190306526E0,-5.750989914E-2,-1.695365608E-1,-6.292343140E-3
8.195306526E0,-4.968690872E-2,-1.584315896E-1,-1.894664764E-2
8.200306526E0,-2.852964401E-2,-1.578521281E-1,-6.329536438E-3
8.205306526E0,9.479522705E-4,-1.471478045E-1,-7.056236267E-3
8.210306526E0,1.867008209E-2,-1.417653412E-1,-2.670288086E-5
8.215306526E0,1.906442642E-2,-1.261473894E-1,-1.273727417E-2
8.220306526E0,2.159738541E-2,-1.217379943E-1,-5.352973938E-3
8.225306526E0,1.317310333E-2,-1.248591244E-1,-9.717941284E-4
8.230306526E0,-6.323814392E-3,-1.177277118E-1,-2.393722534E-3
8.235306526E0,-3.219509125E-2,-1.130433753E-1,1.721763611E-2
8.240306526E0,-5.473279953E-2,-1.052974910E-1,2.004718781E-2
8.245306526E0,-7.417345047E-2,-1.000710875E-1,1.685714722E-2
8.250306526E0,-7.797288895E-2,-8.697882295E-2,-2.697563171E-2
8.255306526E0,-7.609462738E-2,-4.506329820E-2,-3.384208679E-2
8.260306526E0,-6.149768829E-2,5.439296365E-5,-4.007339478E-2
8.265306526E0,-3.232479095E-2,1.535518840E-2,-4.102611542E-2
8.270306526E0,-3.867149353E-4,2.358471602E-2,-2.160072327E-2
8.275306526E0,3.837823868E-2,2.516400442E-2,-2.726268768E-2
8.280306526E0,6.673002243E-2,-1.065518707E-2,6.270408630E-3
8.285306526E0,8.478879929E-2,-3.801232204E-2,2.097892761E-2
8.290306526E0,9.663629532E-2,-8.349487185E-2,3.568458557E-2
8.295306526E0,7.585716248E-2,-1.070895866E-1,3.754711151E-2
8.300306526E0,5.550765991E-2,-1.495567858E-1,4.631900787E-2
8.305306526E0,4.501295090E-2,-1.759608686E-1,1.947021484E-2
8.310306526E0,9.568691254E-3,-1.711602211E-1,1.592922211E-2
8.315306526E0,-2.915525436E-2,-1.703573316E-1,-8.139610291E-3
8.320306526E0,-6.965112686E-2,-1.537334621E-1,-1.803779602E-2
8.325306526E0,-1.157751083E-1,-1.304318309E-1,-2.608299255E-2
8.330306526E0,-1.339960098E-1,-1.282248646E-1,-2.345943451E-2
8.335306526E0,-1.348781586E-1,-1.250672042E-1,-2.524185181E-2
8.340306526E0,-1.246414185E-1,-1.425607204E-1,-2.533054352E-2
8.345306526E0,-1.012678146E-1,-1.508463472E-1,7.143020630E-4
8.350306526E0,-8.553600311E-2,-1.686022878E-1,2.686023712E-2
8.355306526E0,-6.313705444E-2,-1.692563295E-1,4.951000214E-2
8.360306526E0,-3.424406052E-2,-1.641172916E-1,3.941535950E-2
8.365306526E0,-1.460456848E-2,-1.533645988E-1,1.341724396E-2
8.370306526E0,-9.381294250E-3,-1.377719641E-1,-6.313323975E-3
8.375306526E0,-1.794338226E-3,-1.223407313E-1,-3.562545776E-2
8.380306526E0,-2.378368378E-2,-7.779331505E-2,-6.104469299E-2
8.385306526E0,-4.682064056E-2,-5.401708931E-2,-4.977416992E-2
8.390306526E0,-6.496047974E-2,-2.393095568E-2,-3.104305267E-2
8.395306526E0,-6.294631958E-2,-6.372127682E-3,-3.077507019E-3
8.400306526E0,-4.692983627E-2,1.860510930E-2,-4.573822021E-3
8.405306526E0,-2.442073822E-2,3.664783016E-2,-2.010345459E-2
8.410306526E0,1.110076904E-3,4.508281127E-2,-1.436233521E-2
8.415306526E0,2.749729156E-2,5.956989527E-2,-2.355766296E-2
8.420306526E0,3.872680664E-2,5.730804056E-2,1.360893250E-3
8.425306526E0,5.974054337E-2,4.368210956E-2,2.019882202E-2
8.430306526E0,6.933307648E-2,2.972818539E-2,3.991222382E-2
8.435306526E0,5.880260468E-2,3.036133200E-2,4.550647736E-2
8.440306526E0,5.126428604E-2,1.957125217E-2,3.931331635E-2
8.445306526E0,5.405807495E-2,1.755197719E-2,4.710865021E-2
8.450306526E0,4.402112961E-2,1.294335723E-2,3.613281250E-2
8.455306526E0,2.024602890E-2,1.074467972E-2,2.000617981E-2
8.460306526E0,1.280975342E-2,3.270646185E-2,-1.741123199E-2
8.465306526E0,-1.765251160E-3,3.342656791E-2,-2.974891663E-2
8.470306526E0,-3.373384476E-2,3.120546974E-2,-3.213500977E-2
8.475306526E0,-2.974557877E-2,2.682639658E-2,-4.328155518E-2
8.480306526E0,-3.973817825E-2,2.713721618E-2,-4.475688934E-2
8.485306526E0,-3.585386276E-2,2.575971559E-2,-3.817939758E-2
8.490306526E0,-4.480361938E-2,2.758584917E-3,-4.025554657E-2
8.495306526E0,-4.149341583E-2,-5.819052458E-3,-4.162406921E-2
8.500306526E0,-4.227733612E-2,-3.104863688E-2,-5.766391754E-2
8.505306526E0,-6.894779205E-2,-5.553558469E-2,-8.298492432E-2
8.510306526E0,-8.758020401E-2,-9.089509398E-2,-1.014871597E-1
8.515306526E0,-1.167297363E-1,-1.146706566E-1,-9.686279297E-2
8.520306526E0,-1.457982063E-1,-1.446015686E-1,-1.011562347E-1
8.525306526E0,-1.556515694E-1,-1.506252885E-1,-1.178169250E-1
8.530306526E0,-1.806197166E-1,-1.771964282E-1,-1.434869766E-1
8.535306526E0,-2.019042969E-1,-1.975891888E-1,-2.017555237E-1
8.540306526E0,-2.537081242E-1,-2.108545750E-1,-2.400503159E-1
8.545306526E0,-3.183302879E-1,-2.306891531E-1,-2.921743393E-1
8.550306526E0,-4.146075249E-1,-2.284444571E-1,-3.442344666E-1
8.555306526E0,-4.958801270E-1,-2.487333715E-1,-3.698196411E-1
8.560306526E0,-5.986039639E-1,-2.525856495E-1,-4.057550430E-1
8.565306526E0,-7.384195328E-1,-2.407626957E-1,-3.538055420E-1
8.570306526E0,-1.046942949E0,-2.017748952E-1,-2.371654510E-1
8.575306526E0,-1.525200844E0,-9.866115451E-2,-5.517864227E-2
8.580306526E0,-1.984580994E0,7.606506348E-3,1.543588638E-1
8.585306526E0,-2.472323656E0,1.424061656E-1,3.225173950E-1
8.590306526E0,-2.896325588E0,2.582636476E-1,4.801464081E-1
8.595306526E0,-3.232371807E0,3.412246704E-1,5.754203796E-1
8.600306526E0,-3.290768147E0,3.606478274E-1,5.935316086E-1
8.605306526E0,-3.239702702E0,3.659829795E-1,4.489173889E-1
8.610306526E0,-3.212711334E0,3.670045137E-1,1.873579025E-1
8.615306526E0,-3.180842161E0,3.898975253E-1,-1.638774872E-1
8.620306526E0,-3.134755611E0,4.047774076E-1,-5.088748932E-1
8.625306526E0,-3.095601559E0,4.023156762E-1,-7.859926224E-1
8.630306526E0,-3.069519281E0,4.103637636E-1,-8.779773712E-1
8.635306526E0,-3.043539762E0,4.008121490E-1,-8.306646347E-1
8.640306526E0,-3.034203053E0,3.979613781E-1,-6.654825211E-1
8.645306526E0,-3.027153015E0,3.966623843E-1,-4.445495605E-1
8.650306526E0,-3.011398315E0,3.838785589E-1,-2.724161148E-1
8.655306526E0,-2.989037752E0,3.937911391E-1,-2.058963776E-1
8.660306526E0,-2.952595711E0,3.830510378E-1,-1.892070770E-1
8.665306526E0,-2.925869226E0,3.870797753E-1,-2.515907288E-1
8.670306526E0,-2.891966343E0,3.911000788E-1,-3.304557800E-1
8.675306526E0,-2.844482422E0,3.962633610E-1,-3.993148804E-1
8.680306526E0,-2.805969238E0,3.842068613E-1,-4.335479736E-1
8.685306526E0,-2.777139425E0,3.886142075E-1,-4.408483505E-1
8.690306526E0,-2.741520405E0,3.979829252E-1,-4.174051285E-1
8.695306526E0,-2.726629257E0,3.968898654E-1,-3.914260864E-1
8.700306526E0,-2.695910931E0,3.952066600E-1,-3.799095154E-1
8.705306526E0,-2.667631626E0,3.970446587E-1,-4.043111801E-1
8.710306526E0,-2.641194820E0,3.967070878E-1,-4.256992340E-1
8.715306526E0,-2.617546082E0,3.950941265E-1,-4.576473236E-1
8.720306526E0,-2.600351572E0,3.906715512E-1,-4.963665009E-1
8.725306526E0,-2.578857422E0,3.945804834E-1,-5.142917633E-1
8.730306526E0,-2.550563335E0,4.027394652E-1,-5.409164429E-1
8.735306526E0,-2.540639400E0,4.042285383E-1,-5.506992340E-1
8.740306526E0,-2.521059036E0,4.065836966E-1,-5.705375671E-1
8.745306526E0,-2.494409561E0,4.144109488E-1,-6.247377396E-1
8.750306526E0,-2.461764812E0,4.080844522E-1,-6.840095520E-1
8.755306526E0,-2.438508749E0,3.978316486E-1,-7.302007675E-1
8.760306526E0,-2.428459644E0,3.924985528E-1,-7.810983658E-1
8.765306526E0,-2.400072575E0,3.962346017E-1,-7.765522003E-1
8.770306526E0,-2.380205870E0,3.950411975E-1,-7.286920547E-1
8.775306526E0,-2.348503113E0,3.912895024E-1,-6.542043686E-1
8.780306526E0,-2.326439381E0,3.936459720E-1,-5.793294907E-1
8.785306526E0,-2.302618980E0,3.982987404E-1,-5.183267593E-1
8.790306526E0,-2.269519567E0,4.042073488E-1,-5.096855164E-1
8.795306526E0,-2.215214491E0,3.947381079E-1,-5.397129059E-1
8.800306526E0,-2.182282209E0,3.925788999E-1,-5.920648575E-1
8.805306526E0,-2.136084080E0,3.812918961E-1,-6.753177643E-1
8.810306526E0,-2.075071335E0,3.871533573E-1,-7.779684067E-1
8.815306526E0,-2.018929958E0,3.833724558E-1,-8.574705124E-1
8.820306526E0,-1.969958305E0,3.775445223E-1,-9.483442307E-1
8.825306526E0,-1.919063091E0,3.676536381E-1,-9.875898361E-1
8.830306526E0,-1.862779617E0,3.765903711E-1,-9.942512512E-1
8.835306526E0,-1.809095383E0,3.725491464E-1,-1.001660347E0
8.840306526E0,-1.752025604E0,3.747618496E-1,-9.909009933E-1
8.845306526E0,-1.683949828E0,3.672378361E-1,-9.762306213E-1
8.850306526E0,-1.627670050E0,3.608320355E-1,-9.465293884E-1
8.855306526E0,-1.567971587E0,3.629724383E-1,-9.278230667E-1
8.860306526E0,-1.515790224E0,3.466950059E-1,-8.950853348E-1
8.865306526E0,-1.458665371E0,3.408111334E-1,-8.762540817E-1
8.870306526E0,-1.413350344E0,3.297258615E-1,-8.522768021E-1
8.875306526E0,-1.352876425E0,3.378671110E-1,-8.439283371E-1
8.880306526E0,-1.295857906E0,3.275500834E-1,-8.498268127E-1
8.885306526E0,-1.227288127E0,3.264383972E-1,-8.687009811E-1
8.890306526E0,-1.182043195E0,3.225064278E-1,-9.018306732E-1
8.895306526E0,-1.145605087E0,3.212121427E-1,-9.194202423E-1
8.900306526E0,-1.093841791E0,3.074283898E-1,-9.374990463E-1
8.905306526E0,-1.046117306E0,3.133952618E-1,-9.546604156E-1
8.910306526E0,-1.015702724E0,3.156118989E-1,-9.669942856E-1
8.915306526E0,-9.657735825E-1,3.033289909E-1,-9.879102707E-1
8.920306526E0,-9.291968346E-1,2.898054123E-1,-1.014241219E0
8.925306526E0,-8.891263008E-1,2.844648957E-1,-1.052716255E0
8.930306526E0,-8.509893417E-1,2.739610672E-1,-1.105912209E0
8.935306526E0,-7.951406240E-1,2.882147431E-1,-1.162347794E0
8.940306526E0,-7.572981119E-1,2.695236504E-1,-1.237420082E0
8.945306526E0,-7.125276327E-1,2.685490847E-1,-1.287699699E0
8.950306526E0,-6.817864180E-1,2.583019733E-1,-1.304545403E0
8.955306526E0,-6.465191841E-1,2.560893893E-1,-1.292276382E0
8.960306526E0,-6.030684710E-1,2.480194271E-1,-1.251407623E0
8.965306526E0,-5.652111173E-1,2.449253350E-1,-1.213228226E0
8.970306526E0,-5.268324614E-1,2.409957796E-1,-1.149712563E0
8.975306526E0,-4.802954197E-1,2.304725349E-1,-1.100350380E0
8.980306526E0,-4.230567217E-1,2.117179334E-1,-1.083218575E0
8.985306526E0,-3.731652498E-1,2.083818614E-1,-1.080440521E0
8.990306526E0,-3.105419874E-1,1.974011064E-1,-1.113143921E0
8.995306526E0,-2.505912781E-1,1.918039620E-1,-1.175492287E0
9.000306526E0,-1.843528748E-1,1.936736554E-1,-1.227462769E0
9.005306526E0,-1.221494675E-1,1.715850532E-1,-1.275255203E0
9.010306526E0,-6.524193287E-2,1.656740308E-1,-1.326739311E0
9.015306526E0,1.665210724E-2,1.479857713E-1,-1.369799614E0
9.020306526E0,8.627355099E-2,1.516360641E-1,-1.364454269E0
9.025306526E0,1.607755423E-1,1.428028941E-1,-1.359388351E0
9.030306526E0,2.104287148E-1,1.285766661E-1,-1.312144279E0
9.035306526E0,3.026145697E-1,1.285131276E-1,-1.244244576E0
9.040306526E0,3.506870270E-1,1.094727069E-1,-1.180748940E0
9.045306526E0,4.113045931E-1,9.405031800E-2,-1.087101936E0
9.050306526E0,4.757230282E-1,8.722176403E-2,-1.042182922E0
9.055306526E0,5.308101773E-1,8.202703297E-2,-9.908876419E-1
9.060306526E0,5.912587643E-1,6.207142025E-2,-9.597005844E-1
9.065306526E0,6.550112963E-1,6.153567880E-2,-9.551429749E-1
9.070306526E0,7.045515776E-1,4.274610430E-2,-9.303379059E-1
9.075306526E0,7.585089803E-1,4.631211609E-2,-9.416236877E-1
9.080306526E0,8.044520617E-1,2.426247299E-2,-9.645566940E-1
9.085306526E0,8.503743410E-1,3.133883327E-2,-9.539594650E-1
9.090306526E0,8.967132568E-1,3.443963826E-3,-9.937677383E-1
9.095306526E0,9.444233775E-1,8.433014154E-4,-9.931259155E-1
9.100306526E0,9.639838934E-1,-5.044080317E-3,-1.001152039E0
9.105306526E0,9.929652214E-1,-2.203855664E-2,-1.009616852E0
9.110306526E0,1.033310294E0,-2.342687547E-2,-1.025323868E0
9.115306526E0,1.061132193E0,-3.995946050E-2,-1.046084404E0
9.120306526E0,1.085185409E0,-4.320347309E-2,-1.060607910E0
9.125306526E0,1.121729612E0,-4.864403605E-2,-1.067705154E0
9.130306526E0,1.157865882E0,-6.102038920E-2,-1.064082146E0
9.135306526E0,1.187213898E0,-7.428877056E-2,-1.026643753E0
9.140306526E0,1.221901894E0,-7.524285465E-2,-1.003743172E0
9.145306526E0,1.251978993E0,-9.409056604E-2,-9.576301575E-1
9.150306526E0,1.275846243E0,-9.824422002E-2,-9.014120102E-1
9.155306526E0,1.303880692E0,-9.880866110E-2,-8.548383713E-1
9.160306526E0,1.339428306E0,-1.164982393E-1,-8.252296448E-1
9.165306526E0,1.377779365E0,-1.185341924E-1,-7.908382416E-1
9.170306526E0,1.409986734E0,-1.310743988E-1,-7.870740891E-1
9.175306526E0,1.454677224E0,-1.463603526E-1,-7.758913040E-1
9.180306526E0,1.498673916E0,-1.587897986E-1,-7.631969452E-1
9.185306526E0,1.545793295E0,-1.555652916E-1,-7.588233948E-1
9.190306526E0,1.580333114E0,-1.669180691E-1,-7.146234512E-1
9.195306526E0,1.623587608E0,-1.810335368E-1,-6.988191605E-1
9.200306526E0,1.667387247E0,-1.976443827E-1,-6.596078873E-1
9.205306526E0,1.704314590E0,-1.977306604E-1,-6.401042938E-1
9.210306526E0,1.745788813E0,-1.984646469E-1,-6.163492203E-1
9.215306526E0,1.794124126E0,-2.116577923E-1,-5.947780609E-1
9.220306526E0,1.845596433E0,-2.181287557E-1,-5.629234314E-1
9.225306526E0,1.885362744E0,-2.258792818E-1,-5.138492584E-1
9.230306526E0,1.908163428E0,-2.389906496E-1,-4.552345276E-1
9.235306526E0,1.937883377E0,-2.426283956E-1,-3.787879944E-1
9.240306526E0,1.976903677E0,-2.678692937E-1,-2.961015701E-1
9.245306526E0,1.997639894E0,-2.638019323E-1,-1.920518875E-1
9.250306526E0,2.024501324E0,-2.594467700E-1,-1.159152985E-1
9.255306526E0,2.043376923E0,-2.776576877E-1,-8.472824097E-2
9.260306526E0,2.055888653E0,-2.803654075E-1,-6.935882568E-2
9.265306526E0,2.091369152E0,-2.914007306E-1,-7.140064240E-2
9.270306526E0,2.106317282E0,-2.964818776E-1,-9.137916565E-2
9.275306526E0,2.135689974E0,-3.032704592E-1,-1.043119431E-1
9.280306526E0,2.150982618E0,-3.026484251E-1,-1.246976852E-1
9.285306526E0,2.175452709E0,-3.155990243E-1,-1.263141632E-1
9.290306526E0,2.187989473E0,-3.136563301E-1,-1.369628906E-1
9.295306526E0,2.197689295E0,-3.225466907E-1,-1.292762756E-1
9.300306526E0,2.206743240E0,-3.230911493E-1,-1.261711121E-1
9.305306526E0,2.220933437E0,-3.410375714E-1,-1.416225433E-1
9.310306526E0,2.227096081E0,-3.349505067E-1,-1.471452713E-1
9.315306526E0,2.240856171E0,-3.375679255E-1,-1.676797867E-1
9.320306526E0,2.238994598E0,-3.429925442E-1,-1.600980759E-1
9.325306526E0,2.252561569E0,-3.494498730E-1,-1.332864761E-1
9.330306526E0,2.260107517E0,-3.478713632E-1,-7.862567902E-2
9.335306526E0,2.265000582E0,-3.514221907E-1,-2.020645142E-2
9.340306526E0,2.269768000E0,-3.573348522E-1,4.169273376E-2
9.345306526E0,2.275619984E0,-3.556577861E-1,8.076763153E-2
9.350306526E0,2.276561022E0,-3.673134148E-1,1.071395874E-1
9.355306526E0,2.284569025E0,-3.578975201E-1,1.396789551E-1
9.360306526E0,2.293432236E0,-3.620099425E-1,1.516246796E-1
9.365306526E0,2.305111408E0,-3.618066311E-1,1.510524750E-1
9.370306526E0,2.313395977E0,-3.630774915E-1,1.487827301E-1
9.375306526E0,2.329504490E0,-3.642182946E-1,1.849813461E-1
9.380306526E0,2.330891609E0,-3.745805025E-1,1.815233231E-1
9.385306526E0,2.338505745E0,-3.792233169E-1,2.057304382E-1
9.390306526E0,2.351347446E0,-3.828591108E-1,2.360973358E-1
9.395306526E0,2.360770941E0,-3.771542311E-1,2.649965286E-1
9.400306526E0,2.370085001E0,-3.717882037E-1,2.836914062E-1
9.405306526E0,2.376066208E0,-3.797530532E-1,2.938022614E-1
9.410306526E0,2.375187397E0,-3.891441226E-1,3.080539703E-1
9.415306526E0,2.374606609E0,-3.736763597E-1,3.165197372E-1
9.420306526E0,2.391979694E0,-3.787795305E-1,3.270273209E-1
9.425306526E0,2.385547400E0,-3.839283586E-1,3.543672562E-1
9.430306526E0,2.378280878E0,-3.948307633E-1,4.300718307E-1
9.435306526E0,2.385490894E0,-3.839163780E-1,5.060243607E-1
9.440306526E0,2.383921623E0,-3.863028884E-1,5.839815140E-1
9.445306526E0,2.371540785E0,-3.781989217E-1,6.468868256E-1
9.450306526E0,2.363990068E0,-3.755400777E-1,6.986904144E-1
9.455306526E0,2.355415344E0,-3.708725572E-1,6.951742172E-1
9.460306526E0,2.350150585E0,-3.809073567E-1,6.924686432E-1
9.465306526E0,2.350212574E0,-3.862404525E-1,6.489067078E-1
9.470306526E0,2.343006372E0,-3.813392520E-1,6.111116409E-1
9.475306526E0,2.328439474E0,-3.808056414E-1,5.889196396E-1
9.480306526E0,2.334230661E0,-3.830703497E-1,5.610561371E-1
9.485306526E0,2.326475620E0,-3.856069446E-1,5.191802979E-1
9.490306526E0,2.309651852E0,-3.725164235E-1,5.101280212E-1
9.495306526E0,2.297951460E0,-3.760764599E-1,4.749240875E-1
9.500306526E0,2.276441574E0,-3.668845296E-1,4.441394806E-1
9.505306526E0,2.265275478E0,-3.714111447E-1,4.218759537E-1
9.510306526E0,2.247948170E0,-3.663589954E-1,4.157819748E-1
9.515306526E0,2.233855963E0,-3.636488914E-1,4.330196381E-1
9.520306526E0,2.213675022E0,-3.611972928E-1,4.495038986E-1
9.525306526E0,2.186434746E0,-3.546134531E-1,4.614324570E-1
9.530306526E0,2.163115740E0,-3.469895124E-1,4.916181564E-1
9.535306526E0,2.149123192E0,-3.669562638E-1,5.121202469E-1
9.540306526E0,2.127728224E0,-3.472175002E-1,5.217761993E-1
9.545306526E0,2.098768234E0,-3.360611796E-1,5.167617798E-1
9.550306526E0,2.085083961E0,-3.471349180E-1,4.820461273E-1
9.555306526E0,2.060791016E0,-3.393090963E-1,4.572906494E-1
9.560306526E0,2.040697575E0,-3.262314200E-1,4.424304962E-1
9.565306526E0,2.024157047E0,-3.346401155E-1,4.282960892E-1
9.570306526E0,1.993101716E0,-3.249354959E-1,4.146995544E-1
9.575306526E0,1.980707645E0,-3.183558285E-1,4.089756012E-1
9.580306526E0,1.962514520E0,-3.165553510E-1,4.087266922E-1
9.585306526E0,1.934042931E0,-3.112358451E-1,3.981866837E-1
9.590306526E0,1.920029759E0,-3.138691485E-1,3.949232101E-1
9.595306526E0,1.894302607E0,-3.142257929E-1,3.757591248E-1
9.600306526E0,1.872271061E0,-3.005152643E-1,3.592033386E-1
9.605306526E0,1.856972933E0,-3.076330125E-1,3.392391205E-1
9.610306526E0,1.835345507E0,-2.992211282E-1,3.552026749E-1
9.615306526E0,1.810482502E0,-2.988008857E-1,3.520946503E-1
9.620306526E0,1.784153223E0,-2.794455588E-1,3.687467575E-1
9.625306526E0,1.758022547E0,-2.808155417E-1,3.808279037E-1
9.630306526E0,1.731807709E0,-2.733467817E-1,3.992214203E-1
9.635306526E0,1.705980301E0,-2.741279900E-1,4.101724625E-1
9.640306526E0,1.697515249E0,-2.707463503E-1,4.166364670E-1
9.645306526E0,1.660946727E0,-2.720716596E-1,4.086027145E-1
9.650306526E0,1.628564358E0,-2.710559070E-1,3.941230774E-1
9.655306526E0,1.607569814E0,-2.656467557E-1,3.775262833E-1
9.660306526E0,1.571440220E0,-2.669381797E-1,3.547973633E-1
9.665306526E0,1.551538706E0,-2.494204789E-1,3.334760666E-1
9.670306526E0,1.512985229E0,-2.437740862E-1,3.074836731E-1
9.675306526E0,1.478851914E0,-2.341497391E-1,2.823143005E-1
9.680306526E0,1.443978667E0,-2.347311825E-1,2.547082901E-1
9.685306526E0,1.413772941E0,-2.302432209E-1,2.095069885E-1
9.690306526E0,1.388241768E0,-2.231752872E-1,1.328973770E-1
9.695306526E0,1.344980836E0,-2.294511795E-1,5.000782013E-2
9.700306526E0,1.306241989E0,-2.170231938E-1,3.460884094E-3
9.705306526E0,1.270048141E0,-2.195553631E-1,-7.267951965E-2
9.710306526E0,1.230370641E0,-2.160074264E-1,-1.227998734E-1
9.715306526E0,1.197824717E0,-2.005051970E-1,-1.422100067E-1
9.720306526E0,1.148505449E0,-1.996242851E-1,-1.700983047E-1
9.725306526E0,1.103397727E0,-1.814014316E-1,-1.843328476E-1
9.730306526E0,1.053356051E0,-1.901281774E-1,-1.588382721E-1
9.735306526E0,1.011973262E0,-1.813151389E-1,-1.427164078E-1
9.740306526E0,9.680360556E-1,-1.784240752E-1,-1.500968933E-1
9.745306526E0,9.331559539E-1,-1.673529148E-1,-1.624717712E-1
9.750306526E0,8.872421980E-1,-1.689884663E-1,-1.863727570E-1
9.755306526E0,8.505337834E-1,-1.624115705E-1,-2.403516769E-1
9.760306526E0,8.032711148E-1,-1.539360732E-1,-2.871837616E-1
9.765306526E0,7.551460266E-1,-1.510160863E-1,-3.118305206E-1
9.770306526E0,7.236959338E-1,-1.423786730E-1,-3.330278397E-1
9.775306526E0,6.844432950E-1,-1.475965530E-1,-3.636837006E-1
9.780306526E0,6.591308117E-1,-1.336487085E-1,-4.002599716E-1
9.785306526E0,6.042257547E-1,-1.339040399E-1,-4.177484512E-1
9.790306526E0,5.755934715E-1,-1.422558725E-1,-4.548826218E-1
9.795306526E0,5.414019823E-1,-1.265441030E-1,-4.694671631E-1
9.800306526E0,5.116698146E-1,-1.260078996E-1,-5.135545731E-1
9.805306526E0,4.757001996E-1,-1.184497252E-1,-5.366516113E-1
9.810306526E0,4.442106485E-1,-1.158511937E-1,-5.432167053E-1
9.815306526E0,4.117935896E-1,-1.093313992E-1,-5.398874283E-1
9.820306526E0,3.607356548E-1,-1.075158268E-1,-5.159397125E-1
9.825306526E0,3.242135048E-1,-1.047944874E-1,-5.026369095E-1
9.830306526E0,2.985501289E-1,-9.751217067E-2,-4.924173355E-1
9.835306526E0,2.482544184E-1,-8.508832753E-2,-4.916734695E-1
9.840306526E0,2.253272533E-1,-8.356087655E-2,-5.053567886E-1
9.845306526E0,1.868386269E-1,-8.287200332E-2,-5.513181686E-1
9.850306526E0,1.564886570E-1,-7.634590566E-2,-6.109533310E-1
9.855306526E0,1.069598198E-1,-7.666924596E-2,-6.628847122E-1
9.860306526E0,7.023108006E-2,-7.253171504E-2,-7.039203644E-1
9.865306526E0,2.575874329E-2,-7.428293675E-2,-7.355251312E-1
9.870306526E0,-3.018391132E-2,-5.951048434E-2,-7.497358322E-1
9.875306526E0,-7.090544701E-2,-6.162738800E-2,-7.494707108E-1
9.880306526E0,-1.314913034E-1,-4.698865116E-2,-7.636642456E-1
9.885306526E0,-1.684331894E-1,-5.208619684E-2,-8.157520294E-1
9.890306526E0,-2.197797298E-1,-4.044822603E-2,-8.952331543E-1
9.895306526E0,-2.680127621E-1,-3.200680763E-2,-9.745664597E-1
9.900306526E0,-3.202862740E-1,-2.274364978E-2,-1.023070335E0
9.905306526E0,-3.660491705E-1,-2.032230794E-2,-1.081984520E0
9.910306526E0,-4.201261997E-1,-2.870338410E-2,-1.135118484E0
9.915306526E0,-4.774118066E-1,-1.615840197E-2,-1.158512115E0
9.920306526E0,-5.330340266E-1,-2.026072145E-2,-1.164397240E0
9.925306526E0,-6.013368368E-1,-9.958341718E-3,-1.117798805E0
9.930306526E0,-6.340073943E-1,-6.965704262E-3,-1.060303688E0
9.935306526E0,-6.903978586E-1,6.717614830E-3,-1.001091957E0
9.940306526E0,-7.553233504E-1,6.024621427E-3,-9.661417007E-1
